# ================= DQRFIT RESULTS ================
# INPUT FILE: series/SPRA.rad
# OUTPUT: LDETRENDED
# FILTER FUNCTION: f(t)
# f(t)=+line(t)+annual(t)
# line(t)=+P 1+P 2*t
# annual(t)=+P 3*sin(2*pi*t+P 4)
# heav(t)=(t<0?0:1)
# TOTAL OBSERVATIONS MTOT= 3753
# INITIAL TIME INTERVAL= 2022.7488 - 2011.8718 = 10.8770
# TOTAL OBSERVATIONS AFTER PREFILTER M= 3735
# TIME-SPAN= 2022.7488 - 2011.8718 = 10.8770
# OBSERVATIONS: USED M=  3735 REJECTED MTOT-M=    18 %USED=   99.5204
# N=  4 PARAMETERS
# MAXSIG= 175.00000
# MAXRES=  20.77979
# SCALE FACTOR FOR LENGTHS: SCL=  10.00000
# SCALE FACTOR FOR SIGMAS: SCLSIG=   1.00000
# CHI^2=   3106.500 DOF=  3731 CHI^2/DOF=   0.83262
# RMS=      5.233 SDEV=      5.234 MEAN=    0.01978
#  P #       PARAMETER +-    SIGMA %error PARAMETER NAME
# P 1 =      3325.41760 +-   55.906   1.68 YZERO                              
# P 2 =        -1.65000 +-    0.028   1.68 SLOPE                              
# P 3 =         4.58494 +-    0.119   2.60 ANNUAL AMPLITUDE                   
# P 4 =        -3.05147 +-    0.037   1.20 ANNUAL PHASE                       
#       T            LDETRENDED       SIG_OBS
     2011.87177         9.73373         6.42294
     2011.87405        -3.31351         5.11080
     2011.87953        -6.19947         5.20022
     2011.88227         0.40205         5.11718
     2011.88501         1.42956         5.23763
     2011.88774        -4.63592         5.12631
     2011.89048         3.49360         5.20752
     2011.89322         5.90112         5.28143
     2011.89869         2.36215         5.27596
     2011.90143        -4.30633         5.31884
     2011.90417        -4.26681         5.19201
     2011.90691        -1.41530         5.25132
     2011.90965        -2.61378         5.14547
     2011.91238         0.62974         5.36355
     2011.91786         1.94677         5.38363
     2011.92060       -12.86671         5.18836
     2011.92607        -8.18367         5.37815
     2011.92881        -8.29316         5.51685
     2011.93155         1.96636         5.23763
     2011.93702        -3.57660         5.22303
     2011.93976        -1.64009         5.19748
     2011.94250        -0.21557         5.24493
     2011.94524         0.95695         5.25953
     2011.94798         4.79947         5.18106
     2011.95071         0.55098         5.16920
     2012.03285        -5.49949         5.12813
     2012.03559         1.91102         5.16190
     2012.03833        -2.69746         5.04966
     2012.04106         2.36106         5.52689
     2012.04380         3.49858         5.21300
     2012.04654         2.21009         5.31428
     2012.05201         2.76613         5.22303
     2012.05475        16.13765         5.13726
     2012.05749         4.33416         5.43655
     2012.06023         3.38468         5.43108
     2012.06297        -3.17180         5.00404
     2012.06570        -2.26328         5.05970
     2012.07118        -5.90725         4.99947
     2012.07392        -6.02273         5.02685
     2012.07666        -0.91421         4.98579
     2012.07939         1.86330         5.11262
     2012.08213         3.88082         4.92556
     2012.08487         4.74334         4.97758
     2012.09034        -0.80463         5.00860
     2012.09308         0.73789         4.96115
     2012.09582         0.71441         5.13087
     2012.09856         0.24193         4.94199
     2012.10130        -2.64356         5.13087
     2012.10403        -2.17604         5.03962
     2012.10951        -1.52400         5.13452
     2012.11225        -1.91949         5.06882
     2012.11498        -0.94497         5.00495
     2012.11772         5.34255         5.08251
     2012.12046         5.75607         5.09346
     2012.12320         3.45458         5.04236
     2012.12867        -3.94438         5.13087
     2012.13141         0.17914         5.10441
     2012.13415        -1.46735         5.05331
     2012.13689        -2.07383         5.11536
     2012.13963         1.76369         5.19657
     2012.14236        -1.04779         5.29329
     2012.14784        -3.55876         5.02320
     2012.15058        -3.76824         4.98488
     2012.15331        -6.77572         4.99400
     2012.15600        -4.30030         5.16281
     2012.15828        -1.56254         6.57624
     2012.16159         2.30192         5.16828
     2012.16700        -4.70914         5.09802
     2012.16974       -10.55662         4.99765
     2012.17248        -8.89110         4.94655
     2012.17522         3.47141         5.32797
     2012.17796         4.55193         4.99035
     2012.18069        -5.33755         5.03415
     2012.18617        -7.55352         4.99491
     2012.18891         0.76300         5.00039
     2012.19164         9.95952         6.40378
     2012.19438         5.20704         5.00769
     2012.19712         6.00855         5.06335
     2012.19986        -2.41293         5.03506
     2012.20533         5.92011         5.39458
     2012.20807         3.79562         5.03689
     2012.21081         2.82414         4.99309
     2012.21343        -4.26253         5.23307
     2012.21629        -0.88782         5.01955
     2012.21902        -6.42831         5.32432
     2012.22450        -8.57627         4.98123
     2012.22724        -6.47275         5.14182
     2012.22997        -1.90024         5.29877
     2012.23271        -3.38172         5.10167
     2012.23545         7.68280         5.36355
     2012.23819         7.85932         5.30607
     2012.24366         7.06335         5.04145
     2012.24640         2.18687         5.07247
     2012.24914         2.51339         5.06974
     2012.25188        -5.43410         5.01134
     2012.25462       -11.67958         5.08981
     2012.25735        -4.43606         4.96480
     2012.26283        -4.26603         5.01499
     2012.26557        -9.22051         4.99309
     2012.26819       -10.43218         8.36835
     2012.27110        -9.06838         5.31337
     2012.27384         0.37714         5.07430
     2012.27658        -2.60935         5.15095
     2012.28199        -4.28440         5.07521
     2012.28473        -0.78389         4.98670
     2012.28747       -11.67537         5.05057
     2012.29021        -4.50785         4.99309
     2012.29295        -7.15033         5.01225
     2012.29568        -8.28782         5.08434
     2012.30116        -9.31778         5.03415
     2012.30390       -11.59127         5.02594
     2012.30663        -8.55675         5.02229
     2012.30937        -9.93423         5.11992
     2012.31211        -8.77671         5.41192
     2012.31485         1.27580         5.17467
     2012.32032        -1.51416         5.04327
     2012.32306        -7.98364         4.96480
     2012.32580        -9.79513         5.00951
     2012.32854        -9.87161         5.38454
     2012.33128        -5.60609         5.17467
     2012.33350       -12.78742         6.43024
     2012.36145        -9.97930         5.75775
     2012.36413        -9.36188         4.97210
     2012.43372        -8.04206        12.93531
     2012.43531       -12.12543         5.09985
     2012.43805        -6.89091         4.97028
     2012.44079        -8.09839         4.93104
     2012.44353       -10.49487         4.98123
     2012.44626        -9.21736         5.00404
     2012.44900       -12.71284         5.07886
     2012.45448        -3.65781         6.06525
     2012.45722        -3.23229         5.00039
     2012.45995        -2.11977         5.20935
     2012.46269         0.59575         5.22212
     2012.46543        -3.44774         5.05331
     2012.46817        -4.40122         5.08069
     2012.47364        -0.46718         5.03415
     2012.47638        -6.49667         5.02867
     2012.47912        -1.39015         5.08160
     2012.49384         6.26013        10.00625
     2012.49555         0.04396         5.01955
     2012.49828        -5.70053         5.02776
     2012.50102        -1.73001         4.97484
     2012.50376         2.59951         5.11080
     2012.50650         0.69003         4.92100
     2012.51197        -5.31194         5.08981
     2012.51471         0.19358         5.09437
     2012.51745        -0.41290         4.97210
     2012.52019        -5.77239         5.10806
     2012.52292        -8.05987         5.99225
     2012.52566        -0.96335         4.96206
     2012.53114        -0.14032         4.98853
     2012.53388        -7.06980         5.10897
     2012.53633        -2.82775         6.09901
     2012.53947         5.31142         5.67471
     2012.54209         5.51975         5.29786
     2012.54483         2.20227         5.07156
     2012.55030         1.08431         5.12905
     2012.55304        -1.60718         4.97028
     2012.55584         0.24743         4.99309
     2012.55852         3.10286         4.97940
     2012.56125         3.83638         4.92921
     2012.56399         2.58689         4.90823
     2012.56947         1.53193         4.91461
     2012.57221        -1.24255         5.00951
     2012.57494         0.22396         4.97940
     2012.57768        -4.34252         4.92009
     2012.58042        -1.05700         4.93834
     2012.58316        -1.34348         4.95020
     2012.58863         2.20755         4.96936
     2012.59137        -1.35593         6.50050
     2012.59411         1.68959         4.93925
     2012.59685        -1.79690         5.35260
     2012.59964        -6.84229         5.11992
     2012.60232         2.49814         5.42834
     2012.60780         5.25117         4.93013
     2012.61054         7.45969         4.90731
     2012.61327         1.95721         4.89454
     2012.61601         6.77272         4.94108
     2012.61875         6.36324         4.98488
     2012.62149         0.37776         5.02046
     2012.62696        -0.01921         6.09171
     2012.62970         1.54131         4.96480
     2012.63244         0.02383         5.01772
     2012.63518         9.17635         5.00951
     2012.63752         6.34721         5.77508
     2012.64054         6.00419         5.14638
     2012.64379         9.63256         6.03696
     2012.64613         6.19842         4.97758
     2012.64887         6.43593         4.92283
     2012.65160         9.53645         4.97575
     2012.65434         5.43397         5.36812
     2012.65708        -0.51551         8.65487
     2012.65982         8.59800         7.69311
     2012.66529         9.73404         4.97575
     2012.66803         5.97256         5.08981
     2012.67077         6.06007         4.97666
     2012.67351         2.72559         4.96206
     2012.67624         6.52111         5.27687
     2012.67898         9.34063         4.91370
     2012.68446         6.97366         4.96754
     2012.68720         5.26418         4.91735
     2012.68993         4.98170         5.10076
     2012.69267         9.52721         6.90382
     2012.69541         8.28573         5.13270
     2012.69815         5.13325         5.03871
     2012.70362         4.41428         5.01864
     2012.70636        14.98780         5.00130
     2012.70910         3.87532         4.97484
     2012.71184         6.29784         4.91279
     2012.71457         9.06735         4.93834
     2012.71731        11.09987         5.51959
     2012.72279        11.27191         4.88177
     2012.72553         9.48542         4.95933
     2012.72826         7.84094         5.13361
     2012.73100         7.32346         5.05605
     2012.73374         9.95698         5.06244
     2012.73648         4.13149         4.91461
     2012.74195         8.65753         5.09711
     2012.74469        11.19005         4.95476
     2012.74743        11.68456         5.00677
     2012.75017         8.20408         5.00404
     2012.75290        15.33060         4.94746
     2012.75564         1.63811         4.98031
     2012.76112         7.96415         4.87812
     2012.76386         3.69667         4.91279
     2012.76659         6.59218         4.98488
     2012.76933         7.54770         5.00312
     2012.77207         9.35622         5.03962
     2012.77481         7.09974         4.98853
     2012.79397         3.53936         5.14091
     2012.79671         4.04788         5.54696
     2012.79945        10.10539         5.43108
     2012.80219        12.72791         5.48400
     2012.80492         9.12943         5.04784
     2012.80766         7.08995         5.16828
     2012.81040         3.02646         5.02320
     2012.81314         0.45598         5.02229
     2012.81587        -0.85950         5.07612
     2012.81861        -6.09398         5.20570
     2012.82135         2.28353         5.05514
     2012.82409         7.17105         5.17558
     2012.82683        -2.53043         5.09802
     2012.82956         7.04409         5.12540
     2012.83230         3.69660         5.10623
     2012.83504         6.31212         5.21938
     2012.83778         3.60064         5.02411
     2012.84052         7.14916         5.10259
     2012.84257         3.68354         7.15293
     2012.85968         2.78478         5.04784
     2012.86242         0.93430         5.05514
     2012.86516         3.75681         5.01864
     2012.86789         1.26733         5.18288
     2012.87063        -1.78415         5.02046
     2012.87337        -3.61563         5.11445
     2012.87611         4.53988         5.00860
     2012.87885        20.58240         5.03871
     2012.88158         9.40492         4.98761
     2012.88432        13.97644         5.06700
     2012.88706         4.77495         5.16281
     2012.88980        13.49647         5.12357
     2012.89253         3.51699         5.01499
     2012.89527         0.54750         4.96754
     2012.89801         1.67302         5.03232
     2012.89978        19.95994        10.01446
     2012.90349         2.04806         5.06244
     2012.90622         3.26957         4.97484
     2012.90896         4.04709         5.05514
     2012.91170         9.07261         5.16646
     2012.91444         9.87213         5.07612
     2012.91718        10.12964         5.04236
     2012.91991        13.93416         5.05331
     2012.92265         4.76568         5.23489
     2012.92539         5.96320         5.09529
     2012.92813         2.28871         5.00039
     2012.93086        -3.67177         5.11627
     2012.93360         8.43675         5.06882
     2012.93634         6.47827         4.99765
     2012.93908        -4.27322         4.98944
     2012.94182         0.80030         5.00495
     2012.94455         8.77382         5.36994
     2012.94729         6.85134         5.03050
     2012.95003         7.15285         5.07795
     2012.95277         9.66437         4.97210
     2012.95551         7.86089         4.99309
     2012.95824        11.86341         4.98123
     2012.96098        12.07092         5.09529
     2012.96372         7.94344         5.06426
     2012.96646         9.45096         5.05696
     2012.96919        11.00248         5.11810
     2012.97193         8.68199         5.08981
     2012.97467         8.51351         5.00039
     2012.97741         9.80403         4.93286
     2012.98015         5.01455         4.92739
     2012.98288         3.60306         4.95111
     2012.98562        -4.50642         4.97484
     2012.98836        -1.72490         5.36720
     2012.99110        -1.64038         4.94838
     2012.99384         2.45913         4.97849
     2012.99657        -1.29435         4.94564
     2012.99931        -2.58483         4.97119
     2013.00205        -0.14631         5.02411
     2013.00479        -3.24780         4.93104
     2013.00752        -4.98128         4.94655
     2013.01026        -4.33976         5.28417
     2013.01300        -0.96924         4.99765
     2013.01574         0.62027         5.01681
     2013.01848        -8.27921         5.04510
     2013.02121         2.48331         4.99309
     2013.02395        -2.10517         5.07247
     2013.02669         4.38934         5.18106
     2013.02943         5.70386         5.04692
     2013.03216         0.15238         5.31793
     2013.03490        -6.73710         4.97758
     2013.03764        -5.53959         5.02229
     2013.04038        -9.59407         5.03415
     2013.04312        -8.21955         5.15003
     2013.04585        -7.80904         5.32432
     2013.04859        -6.29052         5.14730
     2013.05133        -4.29100         5.00404
     2013.05407        -6.17848         5.04327
     2013.05681         0.39503         5.01134
     2013.05954        -1.77545         5.08251
     2013.06228         0.52207         5.28782
     2013.06502        -1.44141         5.12448
     2013.06776        -2.13690         5.11901
     2013.07049         2.48262         5.09164
     2013.07323         3.73414         5.04784
     2013.07597       -11.40134         5.08069
     2013.07871        -6.22283         4.98670
     2013.08145         1.43169         5.11262
     2013.08418        -3.49579         5.05331
     2013.08692        -4.19327         5.07886
     2013.08966        -6.51376         5.08160
     2013.09240        -4.38524         5.06061
     2013.09514        -2.27772         5.07795
     2013.09787         1.87480         5.22121
     2013.10061        -0.50169         5.36447
     2013.10335         0.40883         5.12905
     2013.10609        -2.04365         5.04510
     2013.10882        -1.21513         4.98123
     2013.11156        -3.63962         5.12540
     2013.11430        -2.45210         5.06882
     2013.11704        -6.43558         5.11992
     2013.11978        -8.42106         5.22577
     2013.12251       -11.03255         5.06974
     2013.12525        -9.33603         5.50316
     2013.12799        -2.32651         5.06791
     2013.13073        -1.02999         5.10988
     2013.13347         0.70852         5.06244
     2013.13620         3.96104         5.07521
     2013.13894         2.06056         5.05696
     2013.14168         3.53408         5.12905
     2013.14442        -3.17541         5.26044
     2013.14715         1.43411         5.31519
     2013.14989        -4.31637         5.05514
     2013.15263        -6.37885         5.12266
     2013.15537       -11.44834         5.13908
     2013.15811        -7.35782         5.07156
     2013.16084        -8.62230         5.08707
     2013.16358       -11.17478         5.10532
     2013.16632        -7.86827         5.08434
     2013.16906        -6.11975         5.15733
     2013.17180        -1.59423         5.15003
     2013.17453         1.38029         5.02959
     2013.17727        -1.17520         5.22303
     2013.18029        -6.21821         5.90192
     2013.18275        -1.16016         5.10715
     2013.18548        -4.31564         5.09164
     2013.18822       -14.60913         5.10532
     2013.19096        -4.52961         5.06700
     2013.19370        -4.93409         5.10441
     2013.19644        -4.50558         5.13543
     2013.19917        -3.24906         5.17832
     2013.20191         0.56946         5.20478
     2013.20465        -1.00002         5.08890
     2013.20739         0.64749         5.03050
     2013.21013         1.08301         5.02502
     2013.21286        -3.28947         5.11536
     2013.21560        -1.14095         5.14912
     2013.21834        -5.93344         5.06335
     2013.22108         3.53308         5.02046
     2013.22381        -3.17340         4.94199
     2013.22655        -7.71588         5.00586
     2013.22929       -10.03437         5.01955
     2013.23203        -2.83085         5.09437
     2013.23477        -1.01833         5.05787
     2013.23750        -2.02081         5.13270
     2013.24024        -7.33030         5.12996
     2013.24298        -5.43978         5.11262
     2013.24572        -2.02626         5.13726
     2013.24846        -0.84674         5.16555
     2013.25119        -1.54123         5.13543
     2013.25393        -3.70271         5.13178
     2013.25667        -3.65219         5.31519
     2013.25941         3.53133         5.14000
     2013.26214         6.49584         5.18562
     2013.26488        -0.22264         5.11171
     2013.26762        -0.85712         5.10806
     2013.27036        -5.84860         5.11262
     2013.27310        -5.96209         5.24493
     2013.27583        -3.73357         5.17011
     2013.27857         1.19695         5.18288
     2013.28131         3.46147         5.15460
     2013.28405         1.04698         5.13726
     2013.28679        -0.56150         5.11810
     2013.28952        -6.45698         5.04601
     2013.29226        -7.31046         5.07612
     2013.29500        -4.09795         5.12540
     2013.29774        -7.35843         5.11262
     2013.30047        -8.95991         5.09985
     2013.30321       -12.81839         5.10167
     2013.30595        -8.37588         5.11810
     2013.30869        -9.54536         5.20296
     2013.31143        -9.79184         5.06061
     2013.31416         0.76868         5.08981
     2013.31690        -5.70081         5.08160
     2013.31964        -4.39029         5.10441
     2013.32238        -8.52777         5.07704
     2013.32512        -1.17825         5.16007
     2013.32785         0.08026         5.06609
     2013.33059        -4.87822         5.02776
     2013.33333       -12.96170         5.09164
     2013.33607        -7.64318         5.06974
     2013.33880         2.02233         5.15551
     2013.34154         4.41185         5.04327
     2013.34428         4.03437         5.06700
     2013.34702        -1.91012         5.09255
     2013.34976        -0.57360         5.23216
     2013.35249        -8.23808         5.13178
     2013.35529        -2.55747         5.30151
     2013.35797         1.26995         5.10259
     2013.36071         0.17347         5.08069
     2013.36344         2.00199         5.11992
     2013.36618         4.17451         5.06609
     2013.36892         1.43702         5.04692
     2013.37166        -6.14746         5.07704
     2013.37440        -3.07294         5.05696
     2013.37713        -6.87342         5.10167
     2013.37987        -2.37091         5.06609
     2013.38261        -9.31539         5.08160
     2013.38535        -5.77787         5.12905
     2013.38809        -1.31235         5.03780
     2013.39082        -1.20484         5.23307
     2013.39356        -6.21232         5.05240
     2013.39630        -4.26080         5.04784
     2013.39904        -1.27428         5.05149
     2013.40177        -4.19777         5.09437
     2013.40451        -2.96825         5.05422
     2013.40725        -1.64373         5.16098
     2013.40999        -0.08121         5.04510
     2013.41273        -2.67170         5.01225
     2013.41546        -1.77218         5.23489
     2013.41820        -1.67966         5.13087
     2013.42094        -4.54214         5.10167
     2013.42368        -8.71963         5.08981
     2013.42642        -2.40411         5.09711
     2013.42915         1.39841         5.10076
     2013.43189        -2.60107         5.13087
     2013.43463         1.73744         5.26592
     2013.43737         1.81396         5.18836
     2013.44010         0.42048         5.08342
     2013.44284         2.48800         5.12631
     2013.44558         1.87951         5.17102
     2013.44832        -7.11797         5.10897
     2013.45106        -6.22545         5.19566
     2013.45379        -3.95093         5.04145
     2013.45653        -3.19842         5.12083
     2013.45927        -3.03290         5.12905
     2013.46201        -0.82738         5.12357
     2013.46475        -0.08986         5.06244
     2013.46748        -1.81235         5.02137
     2013.47022        -6.00883         5.07065
     2013.47296       -10.52431         4.98214
     2013.47570        -1.37079         4.99765
     2013.47843        -0.03628         5.03597
     2013.48117         5.05124         5.08890
     2013.48391         1.77676         5.05605
     2013.48665        -7.42973         5.04054
     2013.48939        -7.99121         5.00495
     2013.49212        -3.53769         5.22212
     2013.49486        -8.53917         5.07339
     2013.49760         2.08334         5.16463
     2013.50034         3.45286         5.05331
     2013.50308        -4.33062         5.04875
     2013.50581         8.28990         5.02320
     2013.50855        -1.79759         5.04601
     2013.51129         5.25593         4.99582
     2013.51403        -1.63755         5.03962
     2013.51676         0.99197         5.05696
     2013.51950         3.48848         4.99674
     2013.52224         4.06000         4.97301
     2013.52498         7.30952         5.14365
     2013.52772         3.38904         5.06974
     2013.53045        -4.49845         5.00039
     2013.53319        -2.53193         5.10532
     2013.53593        -0.41541         4.98761
     2013.53867        -3.82089         5.02411
     2013.54141         3.68162         5.08981
     2013.54414        -2.05586         5.03141
     2013.54688        -3.68334         4.97393
     2013.54962         4.47418         5.06974
     2013.55236         0.96269         4.98396
     2013.55509        -0.53379         4.98579
     2013.55686        -0.61887         9.10928
     2013.57529         5.49053        11.23901
     2013.57700         4.08335         5.04236
     2013.57974         2.62887         5.07430
     2013.58247         9.20439         5.34713
     2013.58521         7.90290         5.04966
     2013.58795         9.97742         5.12448
     2013.59069         0.95994         5.02594
     2013.59342         1.77546         5.06152
     2013.59605         3.92878         5.27231
     2013.59890         2.16449         5.04327
     2013.60164         7.79201         5.14365
     2013.60438        11.47253         5.23854
     2013.60711         6.47204         5.23033
     2013.60985         8.53556         5.16007
     2013.61259         2.63708         5.09072
     2013.61533         4.20960         5.21664
     2013.61807         6.28011         5.18106
     2013.62080         8.61263         5.10441
     2013.62257        -7.45845         9.04723
     2013.63529         7.20754         8.36379
     2013.63723        10.26273         5.10715
     2013.63997         8.98825         5.83257
     2013.64271         5.78977         5.12175
     2013.64544        13.17829         5.15460
     2013.64818         5.94080         5.18653
     2013.65092         3.57532         5.15277
     2013.65366         7.42384         5.10076
     2013.65639         7.44636         5.19110
     2013.65913         5.26087         5.48856
     2013.66187         7.83539         5.12175
     2013.66461         3.83491         5.01225
     2013.66735        12.72843         5.20935
     2013.67008         6.98294         5.32067
     2013.67282        11.11946         5.49586
     2013.67556         1.91298         5.15003
     2013.67830        12.40650         5.22668
     2013.68104         9.32401         5.08890
     2013.68377         9.08353         4.97028
     2013.68651         6.81505         4.99126
     2013.68925         5.21357         5.00769
     2013.69199         3.42308         5.05057
     2013.69472         7.69560         5.03415
     2013.69746         4.28512         5.02137
     2013.70020         7.19764         5.06244
     2013.70294        10.29315         5.05331
     2013.70568        11.89767         5.10350
     2013.70841         2.69019         5.16007
     2013.71115         7.26571         5.04601
     2013.71389         4.44722         5.08799
     2013.71663         3.51474         4.97758
     2013.71937        11.10926         5.00860
     2013.72210         9.78578         5.12357
     2013.72484        11.65429         5.04145
     2013.72758         4.02981         5.07065
     2013.73032        12.90233         5.00130
     2013.73305         9.78885         4.98031
     2013.73579         6.87536         4.94746
     2013.73853         6.14388         4.99400
     2013.74127         6.76740         5.00495
     2013.74401        11.37292         5.21482
     2013.74674         7.16643         5.12266
     2013.74948         5.78795         5.01590
     2013.75222        -5.05453         5.01772
     2013.75496        -0.25701         5.00039
     2013.75770        -5.67250         4.99674
     2013.76043        -5.43398         5.01042
     2013.76317         4.13654         5.01134
     2013.76591         0.01506         5.08251
     2013.76865         6.13257         5.04784
     2013.77138         4.42809         5.05149
     2013.77412         2.73061         5.04692
     2013.77686         0.78813         5.04510
     2013.77960         2.74864         5.02867
     2013.78234        -4.77984         5.00586
     2013.78507        -6.78032         5.03232
     2013.78781        -9.11181         5.02685
     2013.79055        -4.81629         5.02594
     2013.79329        -2.78977         4.97119
     2013.79603        -4.02025         5.00951
     2013.79876        -4.91374         4.99218
     2013.80150         0.47578         5.08525
     2013.80424        -1.44070         5.12083
     2013.80698         1.34682         4.97484
     2013.80971         3.11633         4.98123
     2013.81245         2.03885         5.00677
     2013.81519        -3.28763         5.01042
     2013.81793        -3.18911         5.04692
     2013.82067         4.10240         5.17923
     2013.82340         3.89792         5.01225
     2013.82614         3.46844         5.13817
     2013.82888         6.55796         5.08251
     2013.83162         3.29947         5.01590
     2013.83436        -0.62801         5.21664
     2013.83709         6.16251         5.13726
     2013.83983        -0.38597         5.08799
     2013.84257        -2.70446         5.06335
     2013.84531         0.53906         5.22303
     2013.84804        -4.52242         4.96115
     2013.85078        -0.77790         5.07339
     2013.85352        -3.52439         5.01499
     2013.85626        -3.39787         5.02137
     2013.85900         2.10765         5.06244
     2013.86173        -5.09683         4.98761
     2013.86447        -2.18332         5.07156
     2013.86721        -5.13780         4.92921
     2013.86995        -6.80528         4.99765
     2013.87269         6.59324         5.00951
     2013.87542        12.28575         5.05240
     2013.87816         7.98127         4.96845
     2013.88090         5.91479         5.04875
     2013.88364        10.01131         5.33070
     2013.88637         2.26582         5.06882
     2013.88911         0.43634         5.03141
     2013.89185       -11.89414         5.02685
     2013.89459        -4.88762         5.00312
     2013.89664         4.65776         7.10821
     2013.90006        -6.31759         5.05149
     2013.90280        -9.05507         5.06700
     2013.90554        -0.46355         5.03780
     2013.90828        -1.47104         4.96480
     2013.91102        -3.64752         4.94381
     2013.91375        -1.25800         5.04419
     2013.91649         2.35552         4.95841
     2013.91923         4.93103         5.13543
     2013.92197         1.42955         5.13817
     2013.92470         2.56807         4.92830
     2013.92744         1.34459         4.99491
     2013.93018         1.09310         4.96024
     2013.93292        -2.67238         4.97575
     2013.93566        -3.85586         5.02137
     2013.93839        -1.52735         5.01772
     2013.94113        -4.18483         4.94838
     2013.94387        -2.22731         4.95203
     2013.94661         0.57921         4.98853
     2013.94935        -1.61428         5.03324
     2013.95208        -0.24276         4.92921
     2013.95482         2.78976         5.05331
     2013.95756        -0.62272         4.92556
     2013.96030        -2.80721         4.95750
     2013.96303        -1.89969         4.96754
     2013.96577         1.97183         5.03871
     2013.96851        -2.03265         5.02776
     2013.97125        -7.92314         5.00677
     2013.97399         4.06538         4.98761
     2013.97672        -9.89510         4.97849
     2013.97946        -3.33958         4.98214
     2013.98220        -7.16207         4.97849
     2013.98494        -3.57755         4.93104
     2013.98767        -6.86703         4.92191
     2013.99041        -7.12151         4.98944
     2013.99315       -12.47300         4.98761
     2013.99589        -3.27948         5.02685
     2013.99863        -6.42196         4.94473
     2014.00410        -4.42593         4.98853
     2014.00684         1.49259         5.29147
     2014.00958        -3.43989         5.05422
     2014.01232        -7.90537         4.98123
     2014.01505        -8.15486         5.05970
     2014.01779        -0.55034         5.05787
     2014.02053         0.45318         4.94016
     2014.02327        -0.10330         5.21117
     2014.02600         6.91321         5.10715
     2014.02874         6.85273         4.97575
     2014.03148         7.66025         4.97119
     2014.03422         6.76977         5.01225
     2014.03696        -5.37972         4.95841
     2014.03969        -3.86520         4.96754
     2014.04243         0.38432         5.12905
     2014.04517         0.95484         5.05879
     2014.04791        -0.77065         4.90914
     2014.05065         2.24087         4.96024
     2014.05338        -3.69061         4.98670
     2014.05612        -9.00609         4.96298
     2014.05886        -3.85258         4.98396
     2014.06160        -3.66406         5.18380
     2014.06433        -1.48754         5.06517
     2014.06707        -0.58402         5.13087
     2014.06981        -1.21751         5.01681
     2014.07255        -2.58299         4.94381
     2014.07529        -1.37947         4.98123
     2014.07802         2.68604         4.97575
     2014.08076         1.21756         5.20478
     2014.08350         1.43108         5.01955
     2014.08624        -2.92240         5.06152
     2014.08898        -3.93389         5.18197
     2014.09171        -5.06237         5.16737
     2014.09445       -11.41585         4.99674
     2014.09719        -9.81133         5.06244
     2014.09993         1.12718         4.95841
     2014.10266        -7.87030         5.11627
     2014.10540        -8.43878         4.92465
     2014.10814       -23.01726         4.98305
     2014.11088       -11.49175         5.16463
     2014.11362        -2.65823         4.93743
     2014.11635         0.42829         4.93834
     2014.11909        -6.52119         4.99218
     2014.12183        -2.78568         5.00130
     2014.12457        -0.15216         4.97210
     2014.12731         2.07636         4.99674
     2014.13004         4.06888         4.99674
     2014.13278        -0.09061         5.18562
     2014.13552         5.01591         5.11627
     2014.13826         0.80243         4.94929
     2014.14099         0.76595         4.99582
     2014.14373        -2.47554         5.05422
     2014.14647         1.88298         5.08251
     2014.14921        -3.49250         5.06426
     2014.15195        -1.18698         5.04145
     2014.15468         0.70753         5.03141
     2014.15742         2.75505         5.03232
     2014.16016         2.37957         5.26774
     2014.16290        -0.97791         5.13635
     2014.16564        -5.15840         5.04054
     2014.16837        -0.76188         5.20661
     2014.17111        -3.02736         5.30881
     2014.17385         1.38616         5.36538
     2014.17659        -1.99233         5.25588
     2014.17932        -0.87381         5.28873
     2014.18206        -3.50329         5.12996
     2014.18480        -2.70077         5.41100
     2014.18754        -1.59226         5.12357
     2014.19028        -9.17274         5.11901
     2014.19301        -3.58522         5.14365
     2014.19575        -2.79670         5.05696
     2014.19849        -1.97119         5.15095
     2014.20123        -1.60167         5.11627
     2014.20397        -6.62715         5.13817
     2014.20670        -0.27763         5.14456
     2014.20944        -1.92212         5.10532
     2014.21218         0.53740         5.05879
     2014.21492         3.80792         5.35352
     2014.21765         2.02344         5.17741
     2014.22039        -0.30905         5.15733
     2014.22313        -0.60853         5.10988
     2014.22587        -2.43801         5.13635
     2014.22861        -0.43950         5.21208
     2014.23134         4.64102         5.15003
     2014.23408         2.67454         5.15460
     2014.23682         1.81306         5.14821
     2014.23956        -3.51043         5.10988
     2014.24230        -2.98291         5.17193
     2014.24503        -8.39039         5.15642
     2014.24777         2.79713         5.28417
     2014.25051        -1.46336         5.19475
     2014.25325        -8.09284         5.11810
     2014.25598        -1.59032         5.20387
     2014.25872        -4.42980         5.12083
     2014.26146        -5.19129         5.28143
     2014.26420       -12.54877         5.18106
     2014.26694        -8.40825         5.13908
     2014.26967        -8.00873         5.15368
     2014.27241        -4.09622         5.28964
     2014.27515        -4.38270         5.24219
     2014.27789        -8.75518         5.18380
     2014.28062        -6.20066         5.13087
     2014.28336        -6.63915         5.05240
     2014.28610        -1.20963         5.22668
     2014.28884        -5.71111         5.64369
     2014.29158        -7.23459         5.08069
     2014.29431        -6.42808         5.13726
     2014.29705        -0.76656         5.13726
     2014.29979       -11.34504         5.15095
     2014.30253        -0.29352         5.09985
     2014.30527        -3.52801         5.16828
     2014.30800        -3.68449         5.10623
     2014.31074        -0.64497         5.18015
     2014.31348        -4.17345         5.09346
     2014.31622        -5.68494         5.06882
     2014.31895        -0.09142         5.19383
     2014.32169        -7.11790         5.18653
     2014.32443       -13.25138         5.21938
     2014.32717       -13.46987         5.21938
     2014.32991        -5.81135         5.10532
     2014.33264        -4.60783         5.18380
     2014.33538        -4.29631         5.15095
     2014.33812        -5.02880         5.23489
     2014.34086        -1.37428         5.13817
     2014.34360        -2.41676         5.12175
     2014.34633        -4.27524         5.11627
     2014.34907        -5.21673         5.55061
     2014.35181        -4.54121         5.24767
     2014.35455        -7.47169         5.14912
     2014.35728       -11.13917         5.09985
     2014.36002       -14.56166         5.11445
     2014.36276       -10.26414         5.16920
     2014.36550       -10.35162         5.13543
     2014.36824       -11.52610         5.19840
     2014.37097        -4.29159         5.58072
     2014.37371        -5.68907         5.18197
     2014.37645        -3.37755         5.20843
     2014.37919        -6.38604         5.19018
     2014.38193        -9.32652         5.20661
     2014.38466        -7.85000         5.24128
     2014.38740        -2.65548         5.24676
     2014.39014        -3.94797         5.35260
     2014.39288        -8.42345         5.27139
     2014.39561        -3.04293         5.25588
     2014.39835        -7.26641         5.27961
     2014.40109        -5.62190         5.26683
     2014.40383        -3.32938         5.16463
     2014.40657       -11.20686         5.18197
     2014.40930        -5.85134         5.16098
     2014.41204        -4.85283         5.33070
     2014.41478       -10.84531         5.28691
     2014.41752         1.38021         5.13178
     2014.42026        -4.84727         5.22212
     2014.42299        -6.16876         5.16828
     2014.42573        -6.68124         5.11445
     2014.42847        -6.21972         5.21117
     2014.43121        -5.07120         5.20113
     2014.43394        -3.54769         5.18380
     2014.43668        -9.29917         5.14182
     2014.43942        -7.53465         5.13178
     2014.44216        -8.64313         5.16737
     2014.44490        -6.25162         5.33800
     2014.44763        -2.18710         5.40005
     2014.45037        -8.88758         5.03506
     2014.45311        -1.82406         5.03324
     2014.45585        -2.68055         5.05970
     2014.45859        -7.08103         5.05331
     2014.46132        -4.90051         5.06244
     2014.46406        -2.60999         5.03780
     2014.46680        -2.62748         5.49769
     2014.46954        -4.81596         5.01955
     2014.47227        -2.42844         4.99218
     2014.47501        -0.19192         5.05149
     2014.47775        -5.94041         5.02959
     2014.48049        -4.30489         5.05696
     2014.48323        -2.99637         5.03232
     2014.48596        -1.60785         5.18471
     2014.48870         0.60766         5.13178
     2014.49144         0.54818         5.05149
     2014.49418        -4.06630         5.00404
     2014.49692        -4.96378         4.98488
     2014.49965        -8.78627         5.02137
     2014.50239        -8.88375         5.18836
     2014.50513        -2.01023         5.13361
     2014.50787        -5.60871         5.02046
     2014.51060        -7.38120         4.97484
     2014.51334        -1.85768         4.97484
     2014.51608        -1.87816         5.06244
     2014.51882         2.48635         5.27869
     2014.52156         3.08187         5.11901
     2014.52429         3.40539         5.02046
     2014.52703         5.34091         5.03689
     2014.52977        -0.40358         5.06335
     2014.53251         0.38594         5.11445
     2014.53525         0.87646         5.00677
     2014.53798         6.81798         5.09346
     2014.54072         9.43849         5.15277
     2014.54346         6.18701         5.05970
     2014.54620         5.83653         5.24676
     2014.54893         4.37705         5.09802
     2014.55167         3.83356         5.13908
     2014.55441        -2.56992         5.30789
     2014.55715        -3.63440         5.34074
     2014.55989        -0.98188         5.07339
     2014.56262         3.22163         5.05240
     2014.56536         2.26115         5.06974
     2014.56810        -0.27033         5.03141
     2014.57084         1.34019         5.15277
     2014.57357         4.26370         5.14456
     2014.57631        -2.12978         5.18653
     2014.57905        -2.12126         5.24128
     2014.58179         1.64326         5.23033
     2014.58453         9.51077         5.20570
     2014.58726         6.97429         5.38910
     2014.59000         9.79981         5.28964
     2014.59274         1.98433         5.31337
     2014.59548         4.82884         5.24858
     2014.59822         4.61136         5.14912
     2014.60095        -0.32912         5.17467
     2014.60369         4.46740         5.06791
     2014.60643        -1.31209         5.16463
     2014.60917         6.00843         5.17467
     2014.61190         2.34895         5.31793
     2014.61464         7.19447         5.63274
     2014.61738         3.07698         5.33435
     2014.62012         0.32850         5.18380
     2014.62286         7.41002         5.18745
     2014.62559         2.37854         5.15095
     2014.62833         2.30505         5.24402
     2014.63107         4.90657         5.18197
     2014.63381        -0.54391         5.26683
     2014.63655         7.12061         5.10167
     2014.63928        -4.18788         5.27048
     2014.64202         2.24964         5.01407
     2014.64476        -0.94984         5.08890
     2014.64750         3.26668         5.05879
     2014.65023        -1.42981         5.08525
     2014.65252         7.33196         6.17110
     2014.65942        -9.12365        10.00716
     2014.66119         9.66926         5.19657
     2014.66392         9.74578         5.07612
     2014.66666         8.58430         5.05696
     2014.66940        10.50481         5.04784
     2014.67214         6.00733         5.03597
     2014.67488         3.45685         5.11445
     2014.67761        -2.18063         5.06882
     2014.68035         5.03188         4.98670
     2014.68309         1.13440         5.05331
     2014.68583         3.30892         4.99491
     2014.68856         2.98644         5.09529
     2014.69130        -0.27905         5.05422
     2014.69404         0.02347         5.01316
     2014.69678        -1.56901         5.11445
     2014.69952         3.73651         4.98031
     2014.70225         4.54602         5.00312
     2014.70499         8.40654         4.99856
     2014.70773         8.83406         5.04692
     2014.71047         6.98158         5.00495
     2014.71321         9.75509         4.97393
     2014.71594         5.00461         5.03506
     2014.71868        11.87513         5.07247
     2014.72142         4.93865         4.97119
     2014.72416         9.62616         4.99126
     2014.72689         2.64068         5.06061
     2014.72963        16.38320         5.02137
     2014.73237         6.04972         5.05787
     2014.73511        -6.25377         5.02776
     2014.73785         1.66975         5.04875
     2014.74058         7.69827         5.01225
     2014.74332         7.35179         5.22486
     2014.74606         2.41730         5.22851
     2014.74880         1.13782         5.02137
     2014.75154        -3.27866         5.17102
     2014.75427         2.48186         5.18745
     2014.75701         0.63937         5.03141
     2014.75975         3.78189         5.04601
     2014.76249         4.51041         5.04784
     2014.76522         2.77193         4.94473
     2014.76796         6.38744         5.04601
     2014.77070        -0.76204         5.07430
     2014.77344         6.78448         5.02502
     2014.77618         5.65900         5.13817
     2014.77891         6.92151         5.02411
     2014.78165         0.80803         4.98305
     2014.78439         8.05055         5.02229
     2014.78713        12.28707         5.04784
     2014.78987         2.99458         4.99856
     2014.79260         3.93310         5.00312
     2014.79534         6.91362         4.98853
     2014.79808         3.72814         5.10259
     2014.80082         9.89365         5.07156
     2014.80355         4.53617         5.11536
     2014.80629         2.15469         5.13817
     2014.80903         9.17821         5.07339
     2014.81177         7.33072         4.98396
     2014.81451         6.38324         5.14638
     2014.81724         7.13976         5.01681
     2014.81998         8.80127         5.00586
     2014.82266         6.18970         5.25862
     2014.82454        22.53880         9.63852
     2014.82905        -1.42776         8.46416
     2014.83093         7.37134         5.05331
     2014.83367         3.48386         5.03597
     2014.83641         6.25138         5.04145
     2014.83915         3.35490         5.04784
     2014.84188         6.86541         5.23307
     2014.84462        -8.01107         5.08251
     2014.84736         5.43545         5.13635
     2014.85010         2.43597         5.14547
     2014.85284        -3.26852         5.04601
     2014.85557         0.54000         5.18836
     2014.85831         2.31752         5.06791
     2014.86105        -0.38796         5.21026
     2014.86379        -2.70345         5.11810
     2014.86653        -3.08793         5.03506
     2014.86926       -17.15641         5.01955
     2014.88295       -11.88982         5.25679
     2014.88569         1.67969         5.31337
     2014.88843         4.52421         5.34530
     2014.89117        13.58273         5.38363
     2014.89390         4.06525         5.22029
     2014.89664         6.75476         5.39732
     2014.89938        -3.73872         5.34165
     2014.90212        -7.26520         5.29694
     2014.90485        -1.02068         5.24767
     2014.90759         4.43383         5.14000
     2014.91033         3.05435         5.17741
     2014.91307         6.87587         5.05240
     2014.91581         3.57639         5.06882
     2014.91854         5.28490         4.99674
     2014.92128         4.82342         5.03141
     2014.92402         3.23694         5.06152
     2014.92676         1.52846         5.02685
     2014.92950        -2.88903         5.05240
     2014.93223        -6.44151         4.95568
     2014.93497        -7.21799         5.21117
     2014.93771        -1.83547         5.09985
     2014.94045         3.92704         5.16098
     2014.94318        -5.05944         5.48948
     2014.94592         0.59208         5.09620
     2014.94866        -3.76740         4.92283
     2014.95140        -3.38689         4.95476
     2014.95414         1.61163         4.97393
     2014.95687         5.02915         5.02320
     2014.95961         3.84667         4.94016
     2014.96235         4.50818         4.92009
     2014.96509         9.31070         5.05514
     2014.96783        -5.97778         4.98579
     2014.97056         1.21073         4.96754
     2014.97330        -1.21075         5.08707
     2014.97604        -7.41823         4.95111
     2014.97878        -2.50771         4.91918
     2014.98151         1.94280         4.99218
     2014.98425        -2.10668         4.93560
     2014.98699        -1.11516         4.93834
     2014.98973       -14.94164         4.98761
     2014.99247       -10.65413         5.07886
     2014.99520       -10.51761         4.91005
     2014.99794        -4.50109         4.86808
     2015.00068        -5.17357         4.91370
     2015.00342        -6.85606         4.93925
     2015.00616       -11.42554         4.90731
     2015.00889       -10.51902         5.03232
     2015.01163        -4.40350         4.99765
     2015.01437        -8.13299         5.04327
     2015.01711        -4.50047         5.04327
     2015.01984        -2.00795         4.96024
     2015.02258         0.75257         5.07339
     2015.02532         1.46408         4.94016
     2015.02806        -3.62740         4.99765
     2015.03080         0.57612         5.19383
     2015.03353        -5.64336         4.96936
     2015.03627        -0.78985         4.92009
     2015.03901         0.06467         4.96571
     2015.04175         6.76319         5.08251
     2015.04449        -2.86729         5.03506
     2015.04722         7.38822         5.15642
     2015.04996        -2.26026         5.13635
     2015.05270        -3.27174         4.93195
     2015.05544         0.21978         4.96298
     2015.05817        -1.23071         4.98488
     2015.06091        -0.71719         4.97575
     2015.06365         4.64033         5.07339
     2015.06639        -0.74815         4.92921
     2015.06913        -3.83564         5.00677
     2015.07186        -6.60612         4.96936
     2015.07460        -4.00860         4.92283
     2015.07734        -9.69808         4.97393
     2015.08008        -6.70257         4.91005
     2015.08282        -2.82905         4.91370
     2015.08555        -5.03253         4.98214
     2015.08829         1.00199         5.01042
     2015.09103         6.26850         5.02502
     2015.09377        -0.74998         4.94564
     2015.09650         2.21454         5.14821
     2015.10198        13.71457         5.07156
     2015.10472         2.15309         5.02137
     2015.10746         3.17161         5.05970
     2015.11019        -6.16288         5.10715
     2015.11293        -3.43336         5.07704
     2015.11567        -5.44484         5.04054
     2015.11841        -2.51332         4.94108
     2015.12115        -2.30481         5.06517
     2015.12388        -3.53429         4.94929
     2015.12662        -5.16877         4.94838
     2015.12936        -3.99125         5.01042
     2015.13210        -1.83774         5.37542
     2015.13483        -7.70522         5.06152
     2015.13757         0.13530         5.03597
     2015.14031        -6.64418         4.95841
     2015.14305         0.76433         4.95111
     2015.14579        -0.43715         4.99309
     2015.14852        -2.01563         4.97210
     2015.15126         1.57189         4.93378
     2015.15400        -2.63660         5.16646
     2015.15651         3.77255         5.44385
     2015.19233        -3.38135         5.17558
     2015.19507        -6.79283         4.97210
     2015.19780         3.01968         5.07430
     2015.20054         1.08620         5.00039
     2015.20328        -3.28028         5.02502
     2015.20602        -6.25876         4.97210
     2015.20876        -7.67525         4.94381
     2015.21146        -7.95479         5.05057
     2015.22336         1.43385         8.76254
     2015.22518         0.03486         4.96298
     2015.22792        -2.00962         4.91735
     2015.23066        -5.31011         4.92830
     2015.23334        -3.41768         5.25497
     2015.23613        -1.14507         5.08890
     2015.23887        -1.65955         5.21026
     2015.24161         1.38096         5.14456
     2015.24435         2.85648         5.27413
     2015.24709        -2.62300         5.05696
     2015.24982        -5.11848         4.92556
     2015.25256        -4.28597         4.94016
     2015.25530         0.75755         5.01134
     2015.25804        -1.51293         4.94290
     2015.26078         3.40158         4.92556
     2015.26351         0.79410         4.93560
     2015.26625         1.69862         4.93925
     2015.26899        -6.81086         4.94108
     2015.27173         1.98665         5.00677
     2015.27446         1.68517         5.06426
     2015.27720         0.54369         4.94381
     2015.27994        -1.15579         4.99491
     2015.28268        -2.89128         4.98031
     2015.28542        -7.46076         5.08707
     2015.28815        -5.25024         5.06700
     2015.29089        -2.95672         5.06244
     2015.29363        -2.70121         4.94564
     2015.29637        -2.86069         5.01864
     2015.29911         4.01483         5.01864
     2015.30184         3.22735         4.97575
     2015.30464        -2.85904         5.11718
     2015.30732         0.45738         4.83432
     2015.31006         0.29090         4.89271
     2015.31279        -4.02958         4.86534
     2015.31553        -6.84907         4.91644
     2015.31827        -8.43455         4.99765
     2015.32101        -3.56703         4.92009
     2015.32375        -0.39651         4.89454
     2015.32648        -3.16400         4.93925
     2015.32922        -0.09448         4.95020
     2015.33196         1.35004         4.89819
     2015.33470         1.18256         4.88177
     2015.33744         3.53207         5.01134
     2015.34017        -5.17041         4.81607
     2015.34291        -5.53289         4.90366
     2015.34565        -1.43937         4.85530
     2015.34839        -5.05986         4.89819
     2015.35112        -5.68234         4.87538
     2015.35386        -2.85182         4.93286
     2015.35660        -5.88830         4.90914
     2015.35934        -5.23379         4.98761
     2015.36208        -1.70827         4.88998
     2015.36481        -1.09475         4.85439
     2015.36755        -3.75923         4.91005
     2015.37029        -2.00772         4.89454
     2015.37303        -3.21620         4.89089
     2015.37577        -3.57668         4.95568
     2015.37850        -5.79216         5.05970
     2015.38124        -6.26665         4.93286
     2015.38398        -7.05113         4.86352
     2015.38672        -7.82061         4.92648
     2015.38945        -5.79709         4.85895
     2015.39219        -5.42758         5.02685
     2015.39493        -2.57106         5.13635
     2015.39767        -7.91254         4.92191
     2015.40041        -4.95202         4.91461
     2015.40314        -7.95351         5.07156
     2015.40588        -4.61699         4.98214
     2015.40862        -8.14547         5.23672
     2015.41136        -5.11096         4.97575
     2015.41410        -2.08244         5.01316
     2015.41683        -8.65492         4.87994
     2015.41957        -5.22640         4.86625
     2015.42231        -2.73489         4.90458
     2015.42505        -5.27637         5.04145
     2015.42778        -3.50485         4.94381
     2015.43052        -1.27033         4.89089
     2015.43326        -7.35682         4.88359
     2015.43600        -1.09830         4.96206
     2015.43874         6.02922         4.95750
     2015.44147        -0.57326         5.06061
     2015.44421        -3.03575         4.92191
     2015.44695        -6.36123         4.86352
     2015.44969        -5.92771         4.88906
     2015.45243        -1.05819         5.00130
     2015.45516        -0.80168         4.90640
     2015.45790        -3.69116         5.04784
     2015.46064        -1.90064         5.13817
     2015.46338        -4.41612         5.19201
     2015.46611         2.94939         4.98396
     2015.46885         2.93891         4.96663
     2015.47159        -2.69657         4.89454
     2015.47433        -7.18805         5.09255
     2015.47707        -7.73154         5.10350
     2015.47980        -4.20002         5.04784
     2015.48254        -3.79550         5.13817
     2015.48528        -0.75898         5.06517
     2015.48802        -4.45847         4.96298
     2015.49076        -3.79295         5.18653
     2015.49349         0.55457         5.06152
     2015.49623         1.77009         5.13178
     2015.49896         2.99360         5.11718
     2015.50171         0.80912         4.90001
     2015.50444         2.93564         4.97484
     2015.50718        -3.60484         4.99947
     2015.50992         2.27667         4.98214
     2015.51266         1.16119         4.98579
     2015.51540         5.14171         5.41922
     2015.51802         8.94204         5.20843
     2015.52087         0.10274         5.01042
     2015.52361         3.98626         5.07430
     2015.52635        -2.64122         5.11992
     2015.52908         2.49630         5.19657
     2015.53182         3.84981         5.12813
     2015.53456         3.08233         5.04875
     2015.53730         2.58185         5.03871
     2015.54004         4.56937         5.15825
     2015.54277        -5.22812         5.05696
     2015.54551         6.33340         5.13817
     2015.54825         6.47392         5.38454
     2015.55099         7.12644         5.06061
     2015.55378         5.49605         5.40005
     2015.55646         3.37847         5.11992
     2015.55920         6.56999         5.07795
     2015.56194         3.42350         5.09072
     2015.56468         6.07602         5.11627
     2015.56741         6.47254         5.17741
     2015.57015         2.40106         5.17467
     2015.57289         2.88957         5.22212
     2015.57563         0.96509         5.12175
     2015.57837        11.10261         5.12083
     2015.58110         5.07613         5.09711
     2015.58384         6.25864         5.02320
     2015.58658         8.48616         5.07065
     2015.58932         8.71968         5.09529
     2015.59206         5.32420         5.08160
     2015.59479         8.98471         5.12631
     2015.59753        11.78123         5.08251
     2015.60027        12.00675         5.23946
     2015.60301         9.64527         5.28234
     2015.60574        10.58978         5.10532
     2015.60848        10.59930         5.08981
     2015.61122         5.57782         5.21573
     2015.61396         0.36034         5.15916
     2015.61670         3.84685         5.07886
     2015.61943         5.71437         4.99674
     2015.62217         6.76689         5.03597
     2015.62491         9.86041         4.91735
     2015.62765        10.73192         4.95476
     2015.63039         8.63344         5.08069
     2015.63312        10.92196         4.98579
     2015.63586         8.80548         5.27504
     2015.63860         4.13899         5.03232
     2015.64134        12.84151         4.95568
     2015.64407        11.40803         5.00312
     2015.64681         9.88655         5.16098
     2015.64955         6.49906         4.94473
     2015.65229         6.92558         5.01590
     2015.65503         8.16710         4.97940
     2015.65776         6.52662         5.11353
     2015.66050         7.28213         4.95203
     2015.66324         6.85165         5.02411
     2015.66598        14.37317         5.20205
     2015.66872         6.73669         5.18562
     2015.67145         6.56020         4.98214
     2015.67419         7.09672         4.92374
     2015.67693        11.64424         4.96480
     2015.67967         8.00276         5.02867
     2015.68240         3.98927         5.02594
     2015.68514         2.77079         5.02685
     2015.68788        10.71131         4.99126
     2015.69062         7.05683         4.94290
     2015.69336         5.10834         5.13452
     2015.69609        10.41986         4.98944
     2015.69883        10.06438         5.06882
     2015.70157         9.45989         4.98761
     2015.70431         8.14041         5.03232
     2015.70705        11.17493         4.92009
     2015.70978        10.33145         4.94655
     2015.71252         6.27696         5.07430
     2015.71526         7.99848         5.07521
     2015.71800        10.62100         5.03780
     2015.72073         7.18052         5.05331
     2015.72307         6.05938         6.06160
     2015.72992        14.46067         9.75258
     2015.73169        10.29859         5.05240
     2015.73363         7.35179         7.69676
     2015.73716         8.45362         4.97575
     2015.73990         8.87314         5.06791
     2015.74264         8.31466         5.09985
     2015.74538        10.45617         5.25497
     2015.74811         8.74469         5.17832
     2015.75085         0.77121         5.06882
     2015.75359         7.13873         5.00130
     2015.75633         9.18624         4.96298
     2015.75906         5.08476         5.00404
     2015.76180         5.61128         5.02137
     2015.76454         9.61180         5.02594
     2015.76728         0.48331         5.06244
     2015.77002         4.89483         5.21117
     2015.77275        11.50235         5.20205
     2015.77549         1.87087         5.20752
     2015.77829        12.06548         5.10076
     2015.78097        10.18490         5.01042
     2015.78371         9.87042         5.03324
     2015.78644        11.40294         4.94381
     2015.78918         5.71945         4.97940
     2015.79192        11.18597         4.97393
     2015.79466         9.34649         4.93651
     2015.79739         6.46401         4.95933
     2015.80013         6.79852         5.14456
     2015.80287         3.03504         5.04875
     2015.80561         4.74856         5.06974
     2015.80835         4.00908         4.99400
     2015.81108         2.19159         5.00404
     2015.81382         5.40711         5.02046
     2015.81656         2.14463         4.97484
     2015.81930         4.29715         4.94564
     2015.82203         5.73666         5.00221
     2015.82477         5.91218         4.96571
     2015.82751        14.06570         5.09164
     2015.83025         8.17022         5.13452
     2015.83299         3.28873         5.14365
     2015.83572         4.05025         4.97484
     2015.83846         4.42177         5.05057
     2015.84120         0.06229         5.13178
     2015.84394        -5.53320         4.97849
     2015.84668        -1.27368         5.04236
     2015.84941         0.77084         4.98944
     2015.85215        10.92335         5.12175
     2015.85489         7.35587         5.05149
     2015.85763         0.78939         5.06426
     2015.86036         2.49591         5.03506
     2015.86310        -0.94358         5.07521
     2015.86584         6.93994         5.02137
     2015.86858         3.64046         5.15460
     2015.87132         9.45498         5.10441
     2015.87405        -0.74651         5.03415
     2015.87679        -9.85899         5.13452
     2015.87953        11.46253         5.17650
     2015.88227        -2.68395         4.97393
     2015.88501        -5.41144         5.01955
     2015.88774        -4.74392         5.02685
     2015.89048         5.78160         5.01134
     2015.89322         4.87512         4.98670
     2015.89596         6.89963         4.94290
     2015.89869        11.31415         5.00221
     2015.90143        -6.16733         4.99765
     2015.90417        -4.31181         4.98761
     2015.90691        -2.79230         5.00586
     2015.90965         0.24122         4.99947
     2015.91238         1.53274         4.99856
     2015.91512        -0.14774         5.04145
     2015.91786         1.42977         5.05422
     2015.92060         8.98129         5.05057
     2015.92334         2.42781         5.12905
     2015.92607        -6.71767         5.05331
     2015.92881         8.95284         5.14730
     2015.93155         2.84036         5.35352
     2015.93429         9.23688         5.45480
     2015.93702         7.13240         5.16737
     2015.93976         6.69791         5.27231
     2015.94250         6.43643         5.16281
     2015.94524         1.53295         5.09164
     2015.94798         5.24847         5.15003
     2015.95071        10.49198         4.96845
     2015.95345         2.35250         4.92921
     2015.95625        -2.52989         5.14912
     2015.95893       -12.08346         5.22029
     2015.96988         7.81361         5.04510
     2015.97262        11.56212         5.01681
     2015.97535         6.35264         4.98853
     2015.97809         4.58316         4.97484
     2015.98083         1.61368         4.99765
     2015.98357        -7.10981         4.94929
     2015.98631        -1.04529         5.06426
     2015.98904         0.32823         5.11171
     2015.99178        -8.04025         4.94290
     2015.99452        -4.82074         5.23033
     2015.99731         0.55887         5.08616
     2016.00000        -1.48570         4.99218
     2016.00273        -2.70519         5.04692
     2016.00547        -2.64667         5.01499
     2016.00821        -1.16715         5.01955
     2016.01095        12.12437         4.99947
     2016.01368        -1.22012         5.03689
     2016.01642        -0.01460         5.10532
     2016.01916        -0.12808         5.20478
     2016.02190        -2.61856         5.10806
     2016.02464        -3.86205         5.08525
     2016.02737        -4.09253         5.06700
     2016.03011        -3.07301         4.97393
     2016.03285        10.92051         5.00769
     2016.03559        -2.58198         4.95203
     2016.03833         2.05054         5.05149
     2016.04106         1.25006         4.91096
     2016.04380        -1.89842         5.04510
     2016.04654         4.04109         4.94381
     2016.04928         3.94161         5.01225
     2016.05201        -3.85187         5.02137
     2016.05475        -0.47435         5.00130
     2016.05749         5.90716         4.98031
     2016.06023         3.96868         4.87629
     2016.06297        -2.69780         4.92283
     2016.06570        -3.75028         5.02776
     2016.06844        -7.53477         5.10259
     2016.07118        -0.24925         5.01772
     2016.07392        -2.61773         5.03780
     2016.07666         7.35079         5.16828
     2016.07939         4.96730         5.07795
     2016.08213        -2.01618         5.10806
     2016.08487        -1.41466         4.97119
     2016.08761        -7.46914         4.96663
     2016.09034        -3.73563         5.03689
     2016.09308        -5.53611         4.97849
     2016.09542       -14.03625         5.89644
     2016.10483       -13.52572         7.72505
     2016.10677       -13.64652         4.95203
     2016.10951        -7.46400         4.95933
     2016.11225        -7.33349         4.97484
     2016.11498        -7.54797         5.02411
     2016.11772        -8.27345         4.99126
     2016.12046        -9.89193         4.93834
     2016.12326        -0.50132         5.11627
     2016.12594        -4.12490         4.96663
     2016.12867         2.34162         5.04236
     2016.13141         3.39214         5.05696
     2016.13415         0.94265         4.98396
     2016.13689        -2.93783         4.89636
     2016.13963        -6.66231         4.98670
     2016.14236       -15.37079         4.99126
     2016.14510        -9.49228         5.05057
     2016.14784        -8.48276         5.00677
     2016.15058        -6.98224         4.90366
     2016.15246        -8.02114         9.01256
     2016.16248        -8.25260         9.04815
     2016.16427        -7.44766         5.08251
     2016.16700        -5.62914         5.09164
     2016.16974        -8.96962         5.09164
     2016.17248        -6.56410         5.11536
     2016.17522         0.02141         4.96389
     2016.17796         7.12993         5.16007
     2016.18069        -0.71655         5.02685
     2016.18343        -4.81903         5.14273
     2016.18617        -4.96052         5.02867
     2016.18891         0.50000         4.93013
     2016.19164         0.12552         4.94473
     2016.19438         5.49904         4.87447
     2016.19712         0.28855         4.93560
     2016.19986        -0.68593         4.98579
     2016.20260        -5.96741         4.93195
     2016.20533        -7.39889         5.05422
     2016.20807       -10.24238         5.07886
     2016.21081        -9.87886         4.99856
     2016.21355        -8.73334         4.92739
     2016.21629        -7.40082         4.87629
     2016.21902        -0.05131         4.91005
     2016.22176        -1.82079         4.96115
     2016.22450        -7.58227         4.84800
     2016.22724       -14.43875         4.90731
     2016.22997        -3.64224         4.83340
     2016.23271        -7.68372         4.83979
     2016.23545        -5.59820         4.93651
     2016.23819        -2.72768         4.90275
     2016.24093        -3.57717         4.91005
     2016.24366        -3.55265         4.88541
     2016.24640        -1.76013         4.87538
     2016.24914        -4.97161         4.87447
     2016.25188        -2.75810         5.00495
     2016.25462        -5.32858         4.98488
     2016.25735        -7.61906         4.93195
     2016.26009       -12.78654         4.92009
     2016.26289       -12.66193         5.05331
     2016.26557        -6.93451         4.99674
     2016.26830        -4.23099         5.03689
     2016.27104         0.22453         5.00130
     2016.27378         0.93604         4.89180
     2016.27652        -5.32544         4.91370
     2016.27926        -5.16092         4.96024
     2016.28142        -3.10035         6.62460
     2016.28815       -11.60624         6.96131
     2016.29021       -12.97485         4.92100
     2016.29295       -10.33734         4.95659
     2016.29568        -9.95782         4.99765
     2016.29842         0.70970         5.18471
     2016.30116        -5.30678         5.07065
     2016.30390        -9.38327         5.04419
     2016.30663        -1.47675         5.08069
     2016.30937        -6.12123         4.94381
     2016.31211        -5.21771         5.01499
     2016.31485        -3.56320         4.91735
     2016.31759        -1.72268         4.96480
     2016.32032        -5.25416         4.90275
     2016.32306       -11.18364         4.94016
     2016.32580        -5.96613         4.95111
     2016.32854        -6.41261         4.98305
     2016.33128         0.53691         5.05422
     2016.33401        -5.94957         4.98031
     2016.33675        -7.30706         5.01772
     2016.33949        -3.37354         5.41739
     2016.34223        -2.00502         5.10806
     2016.34496        -2.64950         5.21026
     2016.34770        12.47701         5.04054
     2016.35044        -3.08747         5.07521
     2016.35318        -2.77095         4.98853
     2016.35592       -10.94943         4.98396
     2016.35865       -10.43592         4.94655
     2016.36139        -9.35340         4.97758
     2016.36413        -2.07188         5.05057
     2016.36687         1.61664         5.07430
     2016.36961         2.15915         4.83340
     2016.37234         3.18767         4.87994
     2016.37508        -6.60781         4.92374
     2016.37782        -8.89829         4.95111
     2016.38056        -2.70178         5.06517
     2016.38329        -2.27126         4.85348
     2016.38603        -2.60574         4.86169
     2016.38877         4.51778         4.87538
     2016.39151        -0.37571         4.86808
     2016.39407        -3.55947         6.43754
     2016.41438       -10.73597         9.38850
     2016.41615        -9.10505         5.08251
     2016.41889        -7.18353         5.01955
     2016.42162        -3.70701         5.15186
     2016.42436        -4.90450         4.95203
     2016.42710        -3.09798         4.98214
     2016.42984        -6.63046         5.04327
     2016.43258        -3.67894         5.02867
     2016.43531         8.47857         5.09529
     2016.43805         0.25409         5.14182
     2016.44079        -0.57739         5.01955
     2016.44353        -2.60588         5.07977
     2016.44626       -11.59136         5.07795
     2016.44900        -2.58684         5.02411
     2016.45174         7.18068         5.11810
     2016.45448         2.80319         4.96115
     2016.45722        -1.90729         4.93651
     2016.45995        -0.86377         5.05696
     2016.46269        -5.87325         4.88268
     2016.46543        -9.39574         4.93743
     2016.46822        -1.17912         5.02137
     2016.47096         2.09639         5.14730
     2016.47370         1.32691         4.94929
     2016.47644        10.20843         5.10806
     2016.47918         3.19695         5.15825
     2016.48191        -2.65054         5.10715
     2016.48465        -2.09002         5.27504
     2016.48739        -2.84950         6.00046
     2016.49013         0.73502         5.03780
     2016.49287        -2.06647         4.94473
     2016.49560        -1.49695         5.05149
     2016.49828        -4.41853         4.97028
     2016.50102         1.85599         4.88450
     2016.50376         0.43251         5.10076
     2016.50650        -1.55097         5.12631
     2016.50924         0.43854         4.96024
     2016.51197         6.79806         5.00769
     2016.51477         0.67967         5.03871
     2016.51751        -1.72481         5.11536
     2016.52024        10.55271         6.26417
     2016.52298         2.01423         5.14182
     2016.52572        -1.22926         4.96845
     2016.52846        -0.12674         5.15003
     2016.53120        -4.04722         5.16828
     2016.53393        -0.79770         5.04966
     2016.53667         1.29581         5.16463
     2016.53941         7.13433         5.07430
     2016.54215         2.04185         5.06426
     2016.54488         5.36536         5.16190
     2016.55310        -0.57808         5.11627
     2016.55589         5.64153         5.51868
     2016.55852         2.88086         5.34530
     2016.56131         2.28147         5.12266
     2016.56405         4.68799         5.11627
     2016.56679         3.17850         5.16372
     2016.56953         2.57602         5.28052
     2016.57226         9.38454         5.20205
     2016.57500         3.17006         5.28599
     2016.57774         4.52457         5.04145
     2016.58048         4.39609         5.05331
     2016.58321         2.38361         5.09620
     2016.58595        -0.00687         5.08160
     2016.58869         3.24864         5.05331
     2016.59137         1.58807         5.06700
     2016.59360         4.24374         6.18661
     2016.60780         3.21017         4.98670
     2016.61054        -0.34431         5.03050
     2016.61327         0.06421         5.04054
     2016.61601        -6.92828         5.02959
     2016.61875         3.35324         5.00769
     2016.62149         0.08776         4.98579
     2016.62423         7.00928         5.04601
     2016.62696         8.24579         5.11080
     2016.62970         4.89531         5.04054
     2016.63244        -1.39717         5.02137
     2016.63518         2.31935         4.97301
     2016.63786        11.82177         5.06791
     2016.64967         0.85327         8.24973
     2016.65160         8.37445         5.07886
     2016.65434         3.04797         5.03597
     2016.65708         2.16549         5.06152
     2016.65982         1.25000         4.96845
     2016.66256         4.73752         5.03324
     2016.66529         6.86104         4.94655
     2016.66803         9.38756         4.99126
     2016.67077         8.45007         5.11171
     2016.67351         5.12759         4.93286
     2016.67624        14.83411         4.89910
     2016.67898         9.11663         4.96571
     2016.68138         8.23758         5.74497
     2016.68446         9.03766         5.25588
     2016.68720         3.76418         5.40462
     2016.68993         5.92770         5.20296
     2016.69267         3.97921         4.93104
     2016.69541        15.06273         4.96845
     2016.69815        15.48425         5.00586
     2016.70089         9.12577         5.00677
     2016.70362         5.21128         5.08069
     2016.70636         6.27080         5.22668
     2016.70910         3.25032         5.15642
     2016.71184        11.34984         4.90366
     2016.71457         8.65335         5.10076
     2016.71731         5.56787         4.95020
     2016.72005         7.37039         4.99947
     2016.72279         9.83191         4.92465
     2016.72553         9.89242         4.98031
     2016.72724         1.07225         9.59655
     2016.73659         6.48168         5.33162
     2016.73921         2.23401         4.91279
     2016.74195         6.94653         4.96115
     2016.74469         5.09504         4.95933
     2016.74743         6.72456         4.97119
     2016.75017        10.97908         5.02046
     2016.75290         6.35760         4.93925
     2016.75564        10.37411         5.28052
     2016.75838        10.78063         5.02594
     2016.76112         8.35615         4.97484
     2016.76386         5.41067         4.91644
     2016.76659         6.58118         4.90549
     2016.76933         7.19770         4.94655
     2016.77207         4.18622         5.06426
     2016.77481        12.82974         5.08981
     2016.77754         2.13525         4.94290
     2016.78028        -0.98023         4.87447
     2016.78302         7.58629         4.88359
     2016.78576         7.63481         5.04054
     2016.78850        14.67332         4.91005
     2016.79123        13.84884         5.02320
     2016.79397        13.23836         4.96663
     2016.79671         4.49588         4.85165
     2016.79945        -0.55361         4.87082
     2016.80219         1.58791         4.92283
     2016.80492         2.44243         5.08069
     2016.80766         1.93395         4.99582
     2016.81040         0.67646         5.03050
     2016.81314         0.79498         5.05240
     2016.81587        -5.68850         4.97393
     2016.81861         1.03902         4.92739
     2016.82135         1.90253         4.99035
     2016.82409        -0.07995         5.50864
     2016.82683        -3.29443         4.94381
     2016.82956         6.73509         5.01590
     2016.83230         8.26860         4.87264
     2016.83504         1.05512         4.88177
     2016.83778         4.61764         4.99400
     2016.84052        -0.76784         4.92830
     2016.84325        -2.77233         4.92100
     2016.84599        -0.68481         4.99582
     2016.84873         7.05871         4.98031
     2016.85147        -3.00477         4.90001
     2016.85420        -3.50426         4.92830
     2016.85694         7.74526         4.95203
     2016.85974        -1.94213         5.13908
     2016.86242        -3.76070         4.96571
     2016.86516        13.94981         5.01316
     2016.86789        -0.15967         4.94199
     2016.87063         5.52785         4.97940
     2016.87337        13.12037         5.16281
     2016.87611         6.73488         4.91461
     2016.87885         3.21140         4.88541
     2016.88158        -4.43408         4.94473
     2016.88432         4.19343         4.96571
     2016.88706         5.24295         4.94016
     2016.88980         4.72547         4.90914
     2016.89253        -2.42901         5.01955
     2016.89527         7.77350         5.58529
     2016.89755        -1.77573         6.87006
     2016.90086         0.68473         8.16213
     2016.90331        12.42077         7.97872
     2016.90622        14.03157         6.52514
     2016.90833         9.45906         8.09734
     2016.91364         1.09381         8.46872
     2016.91805        -2.84991         7.84367
     2016.91991        -5.68184         5.00677
     2016.92265        -2.38632         4.93286
     2016.92539         1.03220         4.87264
     2016.92813        -2.32229         4.94381
     2016.93086        -7.74877         4.84162
     2016.93360        -4.26125         4.90640
     2016.93634        -6.13773         4.91188
     2016.93908       -19.53622         5.02867
     2016.94182        -8.15170         4.95933
     2016.94455        -6.10818         4.89910
     2016.94729        -2.78166         4.92283
     2016.95003        -0.41715         5.03232
     2016.95277        -4.69363         5.03324
     2016.95551        -5.81411         4.84618
     2016.95824        -4.11959         4.88450
     2016.96098        -6.86908         4.87447
     2016.96372       -10.91556         4.93743
     2016.96646        -6.02704         4.89910
     2016.96919        -2.65652         5.71030
     2016.97193        -6.47201         4.89545
     2016.97467        -0.54249         4.87720
     2016.97741         8.33003         4.95203
     2016.98015        -2.08345         4.89363
     2016.98288         0.39206         4.86990
     2016.98562        -2.00542         4.90275
     2016.98836        -2.97190         4.92191
     2016.99110        -0.45538         4.87264
     2016.99384         1.38813         4.89545
     2016.99657        -1.70135         4.95203
     2016.99931        -3.92983         4.90093
     2017.00088         3.44176        14.04853
     2017.00479        -6.71280         4.82245
     2017.00695        -7.99122         6.59905
     2017.01026       -11.97776         4.82884
     2017.01300       -11.75924         4.94290
     2017.01574       -12.47973         4.88815
     2017.01796       -12.99006         6.40013
     2017.02669       -21.55366         4.93013
     2017.02943       -22.09214         4.88815
     2017.04859         4.38748         5.18927
     2017.05133        12.36000         4.95020
     2017.05281         0.52645        18.32806
     2017.06616        -9.80853        11.94436
     2017.06776       -10.14490         4.90093
     2017.07049        -9.55738         4.78139
     2017.07323       -11.81786         4.79052
     2017.07597       -13.80234         4.81698
     2017.07871        -9.48683         4.87812
     2017.08145        -9.84231         4.82610
     2017.08418       -15.21079         4.87538
     2017.08692        -5.27727         4.84800
     2017.08966       -10.97576         4.93651
     2017.09240        -7.68624         4.88085
     2017.09514        -2.01472         4.89180
     2017.09787         3.27480         4.90366
     2017.10061         5.41231         4.93104
     2017.10335       -11.19117         4.99126
     2017.10609        -5.85465         4.95933
     2017.10882         5.15887         4.88724
     2017.11156        -2.71662         4.87447
     2017.11430       -10.95510         4.83249
     2017.11704       -14.79958         5.12266
     2017.11978       -13.41206         4.81698
     2017.12251       -12.05355         4.93651
     2017.12531        -2.78393         5.00130
     2017.12805         9.37358         5.03415
     2017.13078         2.36310         4.91096
     2017.13347         0.18952         4.86534
     2017.13620        -2.96096         4.87538
     2017.13894        -1.49344         4.91461
     2017.14168        -4.57592         4.98761
     2017.14442        -7.75241         4.86625
     2017.14715        -9.01489         4.86717
     2017.14989        -9.80037         5.04692
     2017.15263        -1.48285         5.29694
     2017.15537         2.18866         4.87994
     2017.15811        -4.02682         4.97301
     2017.16084        -8.95230         4.87903
     2017.16358       -14.98178         4.84709
     2017.16632        -6.30127         5.03689
     2017.16820         5.51084         9.84565
     2017.17818        -3.02070         8.78626
     2017.18001        -9.59868         4.94473
     2017.18275        -6.23416         5.00039
     2017.18548       -13.14465         4.90458
     2017.18822       -11.37513         4.93651
     2017.19096        -9.10061         4.91644
     2017.19370        -6.45609         5.04601
     2017.19644        -5.50958         4.92283
     2017.19917        -0.25006         4.95385
     2017.20191         0.65146         4.98670
     2017.20465        -9.28302         5.07156
     2017.20739        -6.01851         4.93834
     2017.21013         1.64901         5.00039
     2017.21286        -5.90147         4.93469
     2017.21560        -7.26195         4.99674
     2017.21834        -2.26644         4.96480
     2017.22108        -3.64992         4.92556
     2017.22381        -5.70040         5.06517
     2017.22655        -2.92388         5.04327
     2017.22929        -9.75337         4.95294
     2017.23203        -4.71185         4.92556
     2017.23477        -6.07333         4.95294
     2017.23750        -9.61681         4.85622
     2017.24024        -7.72030         4.81150
     2017.24298        -5.46978         4.85713
     2017.24469         4.03204        10.60392
     2017.25393        -9.08671         4.84435
     2017.25667        -8.99919         4.97210
     2017.25941        -9.84767         4.95111
     2017.26186        -0.93063         5.71851
     2017.26579       -11.56213         8.73517
     2017.26762        -1.21412         4.95568
     2017.27036        -9.67160         4.87447
     2017.27310       -11.63609         4.90093
     2017.27566       -10.32285         5.35169
     2017.29317        -9.02196         8.83554
     2017.29500        -9.45695         4.95111
     2017.29871         4.30717         9.34470
     2017.30047       -12.03791         4.82245
     2017.30224        -5.12699         9.74711
     2017.31275       -19.16566       116.15407
     2017.31416       -10.88732         4.84800
     2017.31690       -10.16581         4.86534
     2017.31964        -7.34029         4.97758
     2017.32238       -10.86777         4.93195
     2017.32512       -17.08625         5.02594
     2017.32785       -11.24274         5.03780
     2017.33059       -19.02322         4.90275
     2017.33333       -13.78970         4.85257
     2017.33607       -14.66019         4.94108
     2017.33880       -10.32867         4.94108
     2017.34154        -3.85715         5.36082
     2017.34428       -10.63763         4.95020
     2017.34702       -14.45012         5.00860
     2017.34976       -10.22760         5.00039
     2017.35249       -12.16208         4.96389
     2017.35523        -9.76456         4.97119
     2017.35797       -11.88905         4.91370
     2017.36071       -14.90653         4.96206
     2017.36344        -9.88001         4.93286
     2017.36618       -14.94949         4.84983
     2017.36892        -8.72098         4.91188
     2017.37166        -6.37746         4.94199
     2017.37440        -8.76094         4.82702
     2017.37713       -11.50642         4.97849
     2017.37987       -14.34191         5.05605
     2017.38261        -9.76539         5.05331
     2017.38535       -12.70487         4.93013
     2017.38809       -14.49235         4.90093
     2017.39082        -8.74784         4.85530
     2017.39356        -9.37032         5.06061
     2017.39630        -5.37080         4.94016
     2017.39904        -9.80628         4.79782
     2017.40177       -12.05477         4.83523
     2017.40451        -6.46625         4.88085
     2017.40725        -3.47573         4.93743
     2017.40999        -1.67721         5.01499
     2017.41273        -5.71870         4.99947
     2017.41546       -11.38618         4.99674
     2017.41820        -9.25866         5.05331
     2017.42094        -4.94614         4.94290
     2017.42368        -5.02163         5.04601
     2017.42642        -9.91111         4.88541
     2017.42915        -7.45759         4.88177
     2017.43189        -7.85007         4.93013
     2017.43463         3.66744         5.02046
     2017.43737        -0.33304         5.04784
     2017.44010       -12.68452         4.98488
     2017.44284        -3.98100         4.88177
     2017.44558        -3.01949         4.85165
     2017.44917        -5.67056         8.40485
     2017.45191         0.75296         8.58096
     2017.45379        -0.73893         5.09802
     2017.45653        -4.14742         5.10988
     2017.45927        -8.45590         4.89819
     2017.46201        -1.09338         4.92283
     2017.46475        -0.51786         5.01134
     2017.46748        -5.85835         5.11718
     2017.47022         0.87617         5.17285
     2017.47296        -4.37531         5.13726
     2017.47478       -17.02130         8.18403
     2017.48473         4.79711         9.09925
     2017.48665        -1.57073         5.04875
     2017.48939         3.16179         5.02137
     2017.49212        -2.24469         4.97301
     2017.49486        -4.26417         5.03324
     2017.49760         2.05934         4.97940
     2017.50034        -4.06914         4.98944
     2017.50308         1.90738         5.04692
     2017.50581         0.90290         5.01316
     2017.50855        -1.07559         5.04875
     2017.51129        -5.14707         5.14000
     2017.51403         4.97145         5.07430
     2017.51676        -3.85403         4.99400
     2017.51950        -6.86952         5.09894
     2017.52224         8.28400         5.15368
     2017.52498         2.97952         5.03962
     2017.52772         5.74604         5.12996
     2017.53045        -1.09745         5.07430
     2017.53319        -0.48993         5.17650
     2017.53593         5.40559         5.13908
     2017.53867         5.48311         5.06791
     2017.54141         7.71762         4.96754
     2017.54414         3.67114         5.05696
     2017.54688         6.33566         5.09164
     2017.54962        -2.91682         5.02594
     2017.55139        -0.94191         9.01621
     2017.56160        10.61795        11.04556
     2017.56331        -1.17424         5.00312
     2017.56605        -5.46672         5.02867
     2017.56878        -2.99620         5.07612
     2017.57152         3.74032         5.02867
     2017.57426        -0.86317         4.91918
     2017.57700         2.27135         4.97575
     2017.57974         0.36287         4.95933
     2017.58247        -1.04461         5.00039
     2017.58521        -8.69510         4.94290
     2017.58795        -3.03958         5.13635
     2017.59069         3.64894         5.11810
     2017.59342         3.24946         5.01316
     2017.59616         1.81197         5.03506
     2017.59890         0.71649         5.08342
     2017.60164        -0.40999         5.11445
     2017.60438         1.67653         5.00221
     2017.60711        -1.87096         4.94564
     2017.60985         2.91056         5.06335
     2017.61259         7.23808         5.12083
     2017.61533         5.26060         5.17832
     2017.61807        -1.95689         5.02502
     2017.62080         0.02763         4.98670
     2017.62354         1.21315         5.02776
     2017.62628        -1.67134         5.29694
     2017.62902         7.36518         5.14821
     2017.63175         4.11970         5.08799
     2017.63449        -1.91878         5.01316
     2017.63723         2.39873         4.88359
     2017.63997         3.74225         4.97393
     2017.64271         5.41577         4.86443
     2017.64544         8.81029         4.94290
     2017.64818         0.61180         4.99309
     2017.65092         2.73132         5.01134
     2017.65366         3.16984         4.95294
     2017.65639         0.89936         4.99582
     2017.65913         0.45787         5.00677
     2017.66187         8.00839         4.97666
     2017.66461         5.76191         5.16646
     2017.66735         1.60143         5.07339
     2017.67008         5.73194         4.92009
     2017.67282         4.36846         5.16007
     2017.67556         5.41398         5.00677
     2017.67830         2.97250         5.01772
     2017.68104         5.36201         4.94381
     2017.68343         7.93597         5.81614
     2017.69555        11.05697         8.24790
     2017.69746        11.41912         5.17650
     2017.70020         5.87964         5.16737
     2017.70294         9.90015         5.32158
     2017.70568         4.48267         5.07612
     2017.70841         3.59919         4.91370
     2017.71115         6.11071         5.09255
     2017.71389         2.46522         5.01499
     2017.71663         7.26274         5.00586
     2017.71937         4.42926         5.04601
     2017.72210         9.93378         5.04145
     2017.72484        -0.47971         4.91826
     2017.72758         5.04981         5.01407
     2017.73032         6.79433         4.98761
     2017.73305         2.95485         5.09255
     2017.73579         6.20936         5.06974
     2017.73853         0.37688         4.95841
     2017.74127         5.78840         5.03597
     2017.74401         5.72592         5.17832
     2017.74674        -1.71957         4.99035
     2017.74948         3.73095         4.94016
     2017.75222         8.09347         5.05331
     2017.75496         2.88499         4.95568
     2017.75770         0.08850         5.03597
     2017.76043         0.13702         4.94199
     2017.76317         6.78354         5.03689
     2017.76591        10.93806         5.03415
     2017.76865         6.33157         5.00860
     2017.77133         0.02600         5.01407
     2017.77492         7.00992         8.03073
     2017.77686        -3.31088         5.17558
     2017.77960         3.41864         5.22394
     2017.78234        -0.31384         5.09894
     2017.78507        -5.50432         5.02776
     2017.78781        -2.48281         5.11080
     2017.79055        -0.92529         5.04510
     2017.79329         4.57523         5.17011
     2017.79603         5.98675         5.26501
     2017.79876        16.36726         5.28326
     2017.80150         9.09078         5.27961
     2017.80424         8.90530         5.14091
     2017.80698         4.32382         5.17741
     2017.80971        -5.59067         5.22212
     2017.81245        -7.14715         5.21938
     2017.81519        -6.33763         5.25132
     2017.81793         0.00989         5.31611
     2017.82067        -5.94560         5.30516
     2017.82340        -2.08108         5.05149
     2017.82614        -4.01956         5.13726
     2017.82888        -3.39504         5.15916
     2017.83162         0.82547         5.18197
     2017.83436         2.58499         5.14365
     2017.83709         3.84551         5.29056
     2017.83983        -5.28697         5.10715
     2017.84257        -1.02946         5.06426
     2017.84531        -1.71894         5.15003
     2017.84804        -7.96542         5.11262
     2017.85078         0.59910         5.20205
     2017.85352         3.41461         5.07521
     2017.85626         3.74913         5.32979
     2017.85900        -1.62735         5.24949
     2017.86173         4.33617         5.17285
     2017.86447         0.87268         5.14000
     2017.86721         4.86720         5.17102
     2017.86995         2.96772         5.17193
     2017.87269         7.18124         5.09164
     2017.87514        -2.35472         5.81067
     2017.87904         5.58871         8.27163
     2017.88090         2.46679         5.03597
     2017.88364         1.91131         5.05879
     2017.88637         6.42382         5.09985
     2017.88911         3.04134         5.19110
     2017.89185         1.12586         5.13726
     2017.89459         0.78038         5.12905
     2017.89733         5.46789         5.13543
     2017.90006         0.95341         5.06335
     2017.90280         2.44893         5.21117
     2017.90554        -0.61455         5.10259
     2017.90828         1.22696         5.10988
     2017.91102         1.47948         5.14547
     2017.91375         0.38100         5.12813
     2017.91649         2.86352         5.07339
     2017.91923         4.60703         5.02776
     2017.92197         5.39655         5.03689
     2017.92470         0.83207         5.11627
     2017.92744        -2.09642         5.14182
     2017.93018        -4.59990         5.07886
     2017.93292        -4.03338         5.10806
     2017.93566        -4.56286         5.13087
     2017.93839        -0.36135         5.09437
     2017.94113        -2.84683         5.09620
     2017.94387         2.40669         5.07795
     2017.94661         2.23421         5.09894
     2017.94935         2.74572         5.17376
     2017.95208         5.89624         5.25953
     2017.95482        -2.11824         5.18927
     2017.95756         2.94128         5.12540
     2017.96030         6.81379         5.12083
     2017.96303         4.08331         5.16007
     2017.96577         9.14983         5.22212
     2017.96851         6.42435         5.30059
     2017.97125        -3.36414         5.01864
     2017.97399         3.06738         5.16828
     2017.97672        -6.87410         5.03232
     2017.97946        -1.29958         5.07430
     2017.98220       -13.22207         5.02137
     2017.98494       -15.24155         5.05149
     2017.98767       -15.26603         5.10988
     2017.99041        -5.79251         5.08342
     2017.99315         0.34800         5.15003
     2017.99589        -3.94948         5.12266
     2017.99863        -2.18196         5.07795
     2018.00136        -7.43944         5.06882
     2018.00410        -9.64393         5.11171
     2018.00684        -6.22841         5.01316
     2018.00958        -5.72989         5.10897
     2018.01232        -6.61437         5.12175
     2018.01505        -4.84586         5.04327
     2018.01779         4.49066         5.10988
     2018.02053        -2.41782         5.12722
     2018.02327         2.83070         5.08160
     2018.02600        -0.99479         5.10350
     2018.02874         0.37773         5.21664
     2018.03148        -8.49575         5.07795
     2018.03422       -10.51023         5.09711
     2018.03696        -8.22572         5.08251
     2018.03969        -8.63220         5.01407
     2018.04243       -11.48768         5.13361
     2018.04517        -8.70316         5.16190
     2018.04791        -0.91865         5.24858
     2018.05065        -3.68413         5.12448
     2018.05338        -3.06161         5.09437
     2018.05612        -0.34309         5.00586
     2018.05886        -4.96058         5.01225
     2018.06160        -0.04406         5.15916
     2018.06433         0.88346         5.21664
     2018.06707         2.97897         5.22759
     2018.06981        -4.38251         5.19110
     2018.07255        -5.85999         5.27322
     2018.07529       -13.60847         5.15642
     2018.07802        -9.33896         5.12722
     2018.08076       -10.92944         5.22942
     2018.08350        -5.80392         5.18380
     2018.08595        -5.11487         5.84626
     2018.08922        -4.88948         5.75592
     2018.09171        -0.97037         5.13635
     2018.09445         1.45015         5.19110
     2018.09719         2.63067         5.33709
     2018.09993        -2.73882         5.25862
     2018.10266        -9.22730         5.16828
     2018.10540        -4.21778         5.23854
     2018.10814        -1.12326         5.13087
     2018.11088        -1.07775         5.08434
     2018.11362         0.71777         5.15186
     2018.11635        -3.62271         5.20022
     2018.11909        -3.54019         5.13635
     2018.12183        -4.84468         5.36994
     2018.12457        -0.58516         5.14000
     2018.12731        -5.30364         5.13087
     2018.13004         0.84188         5.33892
     2018.13278         2.49039         5.31154
     2018.13552         2.43691         5.11718
     2018.13826        -0.04557         5.21573
     2018.14099       -10.64305         5.00951
     2018.14373        -8.39754         5.00951
     2018.14647        -3.95802         5.26683
     2018.14921        -5.17250         5.13178
     2018.15195         1.30602         5.03324
     2018.15468        -0.78447         5.13270
     2018.15742        -1.93995         5.02867
     2018.16016        -0.16043         5.01864
     2018.16290        -1.98291         5.31793
     2018.16564         1.26660         5.24128
     2018.16837        -2.70288         5.12813
     2018.17111        -1.21036         5.12813
     2018.17385        -1.15984         5.26044
     2018.17659        -3.04033         5.04327
     2018.17932        -0.74281         5.18197
     2018.18206         5.74171         5.33070
     2018.18480         1.84523         5.23216
     2018.18754        -1.66726         5.11718
     2018.19028        -5.29574         5.24402
     2018.19301        -5.24622         5.25679
     2018.19575         5.02630         5.29968
     2018.19849        -1.33619         5.06061
     2018.20123         5.10433         5.18653
     2018.20397        11.29985         5.13361
     2018.20670         4.98637         5.11810
     2018.20944         0.99688         5.21847
     2018.21218        -2.97760         5.08342
     2018.21492       -13.89408         5.21117
     2018.21765        -0.55557         4.93560
     2018.22039         2.59895         5.18836
     2018.22313        -0.12953         5.06335
     2018.22587        -2.18601         5.03962
     2018.22861        -7.23250         5.00951
     2018.23134        -3.98598         4.99856
     2018.23408         1.45154         5.03871
     2018.23682        -4.25594         5.10532
     2018.23939        -7.37071         5.40644
     2018.24254        -5.22750         5.35260
     2018.24503        -4.15939         5.06974
     2018.24777        -0.44787         5.00586
     2018.25051         1.73664         5.05696
     2018.25325        -1.80884         5.04236
     2018.25598        -3.55232         4.89728
     2018.25872        -1.66680         5.09346
     2018.26146        -1.56729         5.21208
     2018.26420         6.46923         5.25771
     2018.26694         1.63075         5.00221
     2018.26967        -5.31873         5.03780
     2018.27241        -2.96922         5.05605
     2018.27515         2.22630         5.00221
     2018.27789         2.54782         5.23672
     2018.28062        -1.38666         5.24858
     2018.28336        -6.38215         5.02685
     2018.28610         0.72237         4.95568
     2018.28884         1.70289         4.86352
     2018.29158        -1.35359         5.04510
     2018.29431        -0.80508         4.98214
     2018.29705        -2.51556         4.94108
     2018.29979        -4.75804         4.89454
     2018.30253        -8.57352         5.06426
     2018.30527        -6.51201         4.96115
     2018.30800        -4.43249         4.94655
     2018.31074        -8.42997         4.96206
     2018.31348        -0.59345         4.94016
     2018.31622         4.46906         5.79424
     2018.31895         5.56558         5.13908
     2018.32169         4.04210         4.92921
     2018.32443        -1.53838         4.94929
     2018.32717        -1.81987         4.93104
     2018.32991        -0.46035         5.13270
     2018.33264        -5.00983         5.10988
     2018.33538        -5.88731         5.13087
     2018.33812        -5.75880         5.20022
     2018.34086         2.39672         5.03141
     2018.34360        -3.45476         5.04236
     2018.34633        -4.89024         5.08707
     2018.34907        -2.42973         5.00951
     2018.35181         4.40479         5.16828
     2018.35455         3.12731         5.05331
     2018.35728         2.11483         4.95476
     2018.36002        15.00334         5.07886
     2018.36276         2.89886         5.11718
     2018.36550         0.02238         5.11901
     2018.36824         0.71189         5.05149
     2018.37097         4.57641         5.05970
     2018.37371         1.33193         5.11262
     2018.37645        -1.01155         5.32523
     2018.37919        -5.21104         5.04601
     2018.38193         0.26848         5.00951
     2018.38466         5.65700         4.97849
     2018.38740         4.15452         5.02776
     2018.39014         2.14703         4.98396
     2018.39253         5.76799         5.94298
     2018.39648        -8.15351         8.22235
     2018.39835         4.89259         4.99309
     2018.40109        -1.56590         5.01407
     2018.40383         1.84662         4.97119
     2018.40657         0.71214         5.14821
     2018.40930         8.20866         5.21573
     2018.41204        12.64517         5.03597
     2018.41478        -1.44931         4.98670
     2018.42299         1.88424         5.02959
     2018.42573         4.77876         5.01042
     2018.42847         2.07528         4.99582
     2018.43121         8.34980         5.10715
     2018.43394         3.58631         5.07886
     2018.43668         0.90783         5.06609
     2018.43942         0.04535         5.02502
     2018.44216        -3.88013         5.45206
     2018.44490         1.11238         5.01042
     2018.44763         3.62690         5.04966
     2018.45037        -3.39758         5.04784
     2018.45311         0.10794         5.14182
     2018.45585         2.52345         5.11171
     2018.45859        13.00897         5.18471
     2018.46132        -0.10651         4.92374
     2018.46406        -3.42499         5.00312
     2018.46680        -4.09148         5.06426
     2018.46954         1.24404         5.28234
     2018.47227        -3.09744         5.24858
     2018.47501         3.54008         5.12540
     2018.47775         2.05059         4.93378
     2018.48049         5.90611         5.34439
     2018.48323         3.12463         5.06700
     2018.48596        -0.76485         5.00039
     2018.48870         5.17966         5.32888
     2018.49144        -1.68382         4.98396
     2018.49418         1.72770         5.04510
     2018.49692         1.56722         5.22942
     2018.49965         3.74873         4.98396
     2018.50239         3.35225         5.06517
     2018.50513        -4.25623         4.92191
     2018.50787        -0.79171         5.17285
     2018.51060         5.70580         5.13817
     2018.51334         4.93632         5.07065
     2018.51608        -1.10616         5.03597
     2018.51882        -0.77865         5.52689
     2018.52156         1.68987         5.11992
     2018.52429         1.14439         4.97849
     2018.52703         5.01091         5.10076
     2018.52977         2.28142         4.96936
     2018.53251         1.83594         5.13270
     2018.53525        -0.31054         5.03232
     2018.53798         4.83298         5.03962
     2018.54072         0.37949         4.96389
     2018.54346         7.82201         5.02229
     2018.54620         2.87853         4.88633
     2018.54893         2.64405         4.97758
     2018.55167        -1.09444         5.01499
     2018.55441         4.78808         4.98761
     2018.55715         5.37360         5.16646
     2018.55989         0.40212         5.21847
     2018.56262         3.37563         4.99218
     2018.56536         3.34115         4.97119
     2018.56810         5.30167         4.97028
     2018.57084        -2.20281         5.05970
     2018.57357        -0.54730         5.15186
     2018.57631         1.44122         5.12448
     2018.57905         2.39174         5.27048
     2018.58179         0.89626         5.07795
     2018.58453        11.64677         5.22759
     2018.58726         3.60329         5.03324
     2018.59000         2.36081         5.00586
     2018.59274         7.02133         4.99582
     2018.59548         3.60884         4.95203
     2018.59822         6.96036         4.92556
     2018.60095         3.42688         5.01772
     2018.60369         5.40840         5.01316
     2018.60643         8.60891         4.94473
     2018.60917         4.98943         5.00860
     2018.61190         1.75095         4.90275
     2018.61464        10.54247         5.01955
     2018.61738         3.71398         4.95020
     2018.62012         9.87450         4.94473
     2018.62286        17.41702         5.15733
     2018.62559         8.84054         5.18197
     2018.62833         3.90405         5.00860
     2018.63107         4.65457         5.00495
     2018.63381         7.44809         5.15825
     2018.63655         9.47561         5.02685
     2018.63928         3.67012         5.25406
     2018.64202         5.42764         5.31884
     2018.64476        10.01216         5.34895
     2018.64750         4.97168         4.99126
     2018.65023         6.68919         5.06244
     2018.65297         8.53371         5.02046
     2018.65582         6.40742         5.36629
     2018.65845         8.41674         5.03415
     2018.66119        14.85726         5.07612
     2018.66392         5.91278         5.04601
     2018.66666         4.07130         5.09437
     2018.66940         5.13881         4.99491
     2018.67214         3.58333         5.05422
     2018.67488         2.96685         5.16828
     2018.67761         6.94337         5.12083
     2018.68035         1.14088         5.14638
     2018.68309        -2.18260         5.15095
     2018.68583         1.60992         5.15368
     2018.68856         5.58744         5.20387
     2018.69130         2.69995         5.24676
     2018.69404         5.03347         5.20570
     2018.69678         4.89499         5.13635
     2018.69952         1.18651         5.22303
     2018.70225         2.18302         5.31884
     2018.70499         7.43154         5.11718
     2018.70773         3.04906         5.09164
     2018.71047         2.45758         5.18197
     2018.71321         4.37909         5.03962
     2018.71594         1.96261         5.12813
     2018.71868        -3.82287         5.09346
     2018.72142         0.40265         5.16555
     2018.72416         3.73816         5.26318
     2018.72689         3.93668         5.15825
     2018.72963        -0.80580         5.07065
     2018.73237        -1.70328         5.13361
     2018.73511         0.98223         5.10988
     2018.73785         1.39275         5.08342
     2018.74058         0.16927         5.08616
     2018.74332         3.14679         5.11445
     2018.74606         1.31730         4.96206
     2018.74880         2.52282         5.01499
     2018.75154         3.74634         5.12448
     2018.75427         1.77986         5.03415
     2018.75701        -1.88063         5.28234
     2018.75975         0.17589         4.94381
     2018.76249        -2.60459         5.02959
     2018.76522        -4.23907         5.06974
     2018.76796         2.14644         4.97484
     2018.77070         7.58796         5.10806
     2018.77344         4.19948         5.01225
     2018.77618        -1.50100         4.89910
     2018.77891         1.94751         4.88359
     2018.78165         6.35003         5.26044
     2018.78439         2.40255         4.96115
     2018.78713        -4.05893         5.08525
     2018.78987        -5.43642         5.03689
     2018.79260        -1.12990         4.98944
     2018.79534         6.41462         4.94655
     2018.79808        -1.04086         4.98123
     2018.80082         1.46865         5.04601
     2018.80355         2.95317         5.02046
     2018.80629         5.15469         5.08890
     2018.80903         0.48420         4.99582
     2018.81177         2.35872         5.21026
     2018.81451         4.98124         4.97393
     2018.81724         4.29676         4.98488
     2018.81998         3.95627         5.04601
     2018.82272         7.04979         5.10259
     2018.82546         0.27631         4.96663
     2018.82820        -1.77617         4.96389
     2018.83093         2.70934         4.91826
     2018.83367         7.53786         5.06700
     2018.83641         1.64538         5.26409
     2018.83915         6.79390         5.11262
     2018.84188        -0.84459         5.22121
     2018.84462         9.81193         4.94108
     2018.84736         0.25145         4.99309
     2018.85010         3.02497         4.99309
     2018.85284         0.32648         4.95294
     2018.85557        -7.91100         4.97210
     2018.85831        -4.14448         5.05605
     2018.86105        -2.37196         4.99309
     2018.86379         0.44055         5.06335
     2018.86653         2.85807         5.02137
     2018.86926        -2.62441         5.02137
     2018.87200         0.68311         5.05787
     2018.87474         3.16262         5.11536
     2018.87748        -1.00086         5.10167
     2018.88021         0.28766         5.18927
     2018.88295         0.83318         5.16281
     2018.88569        -0.32531         5.24858
     2018.88843         5.35921         5.24493
     2018.89117        12.56073         5.27231
     2018.89390         4.28025         5.18380
     2018.89664         4.09876         5.33800
     2018.89938        -0.02272         5.19110
     2018.90212         4.91180         5.20478
     2018.90485         4.89832         5.22668
     2018.90759         0.95383         5.18471
     2018.91033         8.57735         5.10897
     2018.91307         9.29887         5.15095
     2018.91581         4.56939         5.16190
     2018.91854        -2.64710         5.10259
     2018.92128         5.38342         5.09072
     2018.92402         1.43394         5.13087
     2018.92676         8.32546         5.07795
     2018.92950         8.40397         4.99856
     2018.93223         0.68749         5.20113
     2018.93497        -0.88999         5.11353
     2018.93771         0.49553         4.99582
     2018.94045         3.73604         5.03871
     2018.94318         6.94756         5.08890
     2018.94592         5.58808         5.10076
     2018.94866         5.54360         5.09894
     2018.95140         4.08911         5.08525
     2018.95414        14.93563         5.18927
     2018.95687        12.45615         5.14547
     2018.95961        12.28566         5.07795
     2018.96235        13.41018         5.15277
     2018.96509         2.79570         5.18836
     2018.96783         8.03222         5.00586
     2018.97056         7.35673         5.14182
     2018.97330         1.55725         5.05787
     2018.97604         0.67477         5.09802
     2018.97878         2.28729         5.01772
     2018.98151        -4.06220         4.99400
     2018.98425         0.65232         5.29238
     2018.98699        -2.87516         5.15186
     2018.98973        -0.74264         5.04966
     2018.99247         0.73287         5.12175
     2018.99520         5.72139         5.16190
     2018.99794        -4.29709         5.08069
     2019.00068        -5.15757         5.20478
     2019.00342        -4.56406         5.25588
     2019.00616        -2.42954         5.20478
     2019.00889         6.47498         5.16190
     2019.01163         3.40850         5.04327
     2019.01437        10.21601         5.22486
     2019.01711         7.61353         5.08707
     2019.01984        -1.91495         5.15551
     2019.02258        11.40457         5.06974
     2019.02532        -2.55392         5.06426
     2019.02806         3.21560         5.04875
     2019.03080        -4.28388         5.12448
     2019.03353        -4.68636         5.00677
     2019.03627        -6.30585         4.96024
     2019.03901         0.62467         5.11992
     2019.04175         1.80019         4.96389
     2019.04449         5.37071         4.98488
     2019.04722        -1.84478         5.07521
     2019.04996        -3.57926         5.15186
     2019.05270        -4.56074         5.21847
     2019.05544        -2.05922         5.06517
     2019.05817        -4.11471         5.17467
     2019.06091        -7.38019         5.19292
     2019.06365        -1.04767         5.18562
     2019.06639        -1.68015         5.20935
     2019.06913        -2.30664         5.12266
     2019.07186        -2.68612         5.11353
     2019.07460         0.83140         4.96298
     2019.07734         1.05592         5.00860
     2019.08008         3.66943         4.95294
     2019.08282         0.04695         5.22577
     2019.08555         1.06347         5.08251
     2019.08829         5.37899         5.07521
     2019.09103         8.58950         5.00130
     2019.09377         7.76502         4.97940
     2019.09650         6.88354         5.02502
     2019.09924         3.34705         5.04692
     2019.10198         0.27057         5.04875
     2019.10472         3.71309         5.07521
     2019.10746         2.60961         5.11080
     2019.11019         1.92812         4.98214
     2019.11293         7.56164         5.13543
     2019.11567        13.26816         5.35808
     2019.11841        17.38268         5.06061
     2019.12388        14.19871         5.24493
     2019.12662         6.11723         5.05605
     2019.12936         2.92275         5.14000
     2019.13181        -0.21121         5.84717
     2019.13483         1.82678         5.12631
     2019.13757         4.43730         5.12175
     2019.14031         6.34482         5.08981
     2019.14305         0.79033         5.12357
     2019.14579        -1.28615         5.02867
     2019.14852       -10.09263         5.10532
     2019.15126       -12.43911         5.02502
     2019.15674       -25.54508         5.15003
     2019.16221       -10.52004         5.11353
     2019.16495        -2.26853         5.07704
     2019.16769        -9.50401         5.02046
     2019.17043        -8.03049         5.16281
     2019.17316        -2.43697         5.23124
     2019.17590        -2.38446         5.18562
     2019.17864        -1.68694         5.18927
     2019.18138         0.43258         5.12357
     2019.18412       -11.90890         5.14912
     2019.18685        -1.21139         5.08981
     2019.18959        -3.79487         5.10806
     2019.19233         1.09365         5.21026
     2019.19507        -4.76983         5.03050
     2019.19780        -5.32732         4.98396
     2019.20054        -7.76680         5.17558
     2019.20328       -11.68528         5.07612
     2019.20602        -8.90676         5.09985
     2019.20876       -10.39325         5.09529
     2019.21149       -10.03673         5.06152
     2019.21423        -5.97821         5.10988
     2019.21697        -4.11669         5.10988
     2019.21971        -3.60118         5.31337
     2019.22245        -4.17066         5.07156
     2019.22518        -5.68314         5.02867
     2019.22792        -3.23062         5.12813
     2019.23066        -4.26111         5.09529
     2019.23340        -4.87459         5.05331
     2019.23613        -8.05907         5.04145
     2019.23887        -6.30255         5.10897
     2019.24161       -11.95004         5.14547
     2019.24435       -10.85752         5.14821
     2019.24709        -9.19800         5.04510
     2019.24982        -1.99549         5.05970
     2019.25256        -7.17897         5.06061
     2019.25530        -7.21045         5.08707
     2019.25764        -1.82859         6.14281
     2019.26078        -1.72242         5.15003
     2019.26351        -2.15090         5.11627
     2019.26625        -4.29638         5.11901
     2019.26899        -7.68186         5.09985
     2019.27173        -2.85635         5.21208
     2019.27446        -4.90383         5.05696
     2019.27720        -7.51631         5.15733
     2019.27994         3.26021         5.08707
     2019.28268        -4.15528         4.99491
     2019.28542        -0.20576         5.06152
     2019.28815        -2.25524         5.07065
     2019.29089        -5.98872         5.15733
     2019.29363        -5.28421         5.06426
     2019.29637        -3.12169         5.24219
     2019.29911         0.89983         5.06609
     2019.30184        -0.57465         5.14000
     2019.30458       -10.34614         4.98214
     2019.30732        -8.02362         5.05331
     2019.31006         0.02390         5.13817
     2019.31279        -2.53158         5.14182
     2019.31553         3.85393         5.10441
     2019.31827        -1.52455         5.03962
     2019.32101        -1.84103         5.04966
     2019.32375       -11.95251         4.97575
     2019.32648        -5.16800         5.01772
     2019.32922        -2.63648         5.09437
     2019.33196        -6.52996         5.15368
     2019.33470        -3.42844         5.04784
     2019.33744        -4.14793         4.97758
     2019.34017        -5.33341         4.93378
     2019.34291         2.67911         4.99035
     2019.34565         0.61763         5.10441
     2019.34839        -6.19286         5.07156
     2019.35112         1.00966         5.12175
     2019.35386        -1.43182         4.96389
     2019.35660         1.89270         5.06152
     2019.35934        -0.93879         5.02229
     2019.36208        -0.13027         5.13908
     2019.36481        -2.33075         4.96480
     2019.36755        -2.92223         5.13087
     2019.37029         0.02328         5.11080
     2019.37303         2.69480         5.08525
     2019.37577         4.50832         5.24584
     2019.37850         1.87584         5.11262
     2019.38124         3.31235         5.11901
     2019.38398         0.54087         5.06244
     2019.38672         1.69639         5.11810
     2019.38945        -5.47809         5.11262
     2019.39219        -3.21458         5.16007
     2019.39493        -0.84206         5.13543
     2019.39767        -2.25554         5.14730
     2019.40041         5.95197         5.13543
     2019.40314         4.40749         5.18653
     2019.40588         7.62901         5.14456
     2019.40862         1.47353         5.10441
     2019.41136         3.80604         5.10897
     2019.41410         1.21856         5.24584
     2019.41683        -3.09092         5.21391
     2019.41957         5.15860         5.17011
     2019.42231        -1.12989         5.01316
     2019.42505         3.05263         5.05879
     2019.42778         5.47515         5.31337
     2019.43052         5.79667         5.12357
     2019.43326        -5.98782         5.07065
     2019.43600        -6.41830         5.09711
     2019.43874        -1.46678         5.23124
     2019.44147        -3.21226         5.17193
     2019.44410        -3.37493         5.54788
     2019.46148        -7.75226         8.64301
     2019.46338         6.40588         5.47396
     2019.46611        -0.06061         5.54696
     2019.46885         6.27191         5.32797
     2019.47159         2.62743         5.20843
     2019.47433         2.07995         5.31611
     2019.47707         1.17846         5.30059
     2019.47980         8.56998         5.29603
     2019.48254         3.00550         5.38363
     2019.48528         3.35402         5.42378
     2019.48802        -1.82047         5.25953
     2019.49076        -2.37995         5.11627
     2019.49349         1.66557         5.10259
     2019.49623         4.51309         5.13361
     2019.49897        -2.84340         5.11080
     2019.50171         6.36612         5.03780
     2019.50444        -5.11436         5.15733
     2019.50718        -3.36784         5.10441
     2019.50992         4.70267         5.17467
     2019.51266         3.05819         5.21482
     2019.51540         4.24871         5.16190
     2019.51813         1.55523         5.12357
     2019.52087         4.97774         5.12996
     2019.52361         3.06726         5.00951
     2019.52635         1.41678         5.03962
     2019.52908         8.39630         5.29238
     2019.53182         0.28281         5.27687
     2019.53456         1.69933         5.20296
     2019.53730         0.62485         5.35899
     2019.54004         2.63637         5.19110
     2019.54277        12.49988         5.29877
     2019.54551        -2.97260         5.42743
     2019.54825         3.39192         5.02685
     2019.55099        -3.80557         5.06700
     2019.55373         1.57395         5.35352
     2019.55646        10.37747         5.25771
     2019.55920        -3.50201         5.46119
     2019.56194        -2.48550         8.07727
     2019.56468        -2.58998         5.13635
     2019.56741         0.46454         5.11901
     2019.57015        -2.30794         4.96936
     2019.57289         3.50757         5.13270
     2019.57563         1.56109         5.10441
     2019.57837         5.52361         5.14730
     2019.58110         6.60813         4.96663
     2019.58384        -2.34036         5.32705
     2019.58658         7.28916         5.03324
     2019.58932         7.57568         5.03232
     2019.59206        11.93620         5.16555
     2019.59479         3.97971         5.01407
     2019.59753         0.76123         5.23763
     2019.60027        10.72375         5.42287
     2019.60301        12.18127         5.35352
     2019.60574        11.24078         5.39184
     2019.60848         3.59130         5.31246
     2019.61122         0.42682         5.03780
     2019.61396        -2.51966         5.14365
     2019.61670         2.86885         5.09255
     2019.61943        -4.00863         5.22121
     2019.62217        11.00389         5.22029
     2019.62491         6.46441         5.02867
     2019.62765         6.69892         5.08981
     2019.63039         6.77744         5.11262
     2019.63312         1.42296         5.22577
     2019.63586         7.39948         5.32432
     2019.63860        -5.58801         5.36538
     2019.64407         4.16303         5.31793
     2019.64681        -4.49945         5.31154
     2019.64955         3.53606         5.20935
     2019.65229         5.86458         5.24219
     2019.65503         1.66210         5.22029
     2019.65776         4.84162         5.33892
     2019.66050         3.37913         5.23854
     2019.66324         4.56265         5.23763
     2019.66598         7.97517         5.11536
     2019.66872         7.26369         5.24402
     2019.67145         3.43120         5.20296
     2019.67419         5.44772         5.29968
     2019.67693         3.94924         5.31611
     2019.67967        -2.96424         5.56886
     2019.68240        -2.40873         5.20387
     2019.68514         3.08479         5.25132
     2019.68788         9.63131         5.25953
     2019.69062         4.55082         5.15551
     2019.69336         5.23634         5.23124
     2019.69609         2.32286         5.08251
     2019.69883        -2.12962         5.20387
     2019.70157         2.44089         5.26318
     2019.70431         7.09041         5.17558
     2019.70705         5.32993         5.17102
     2019.70978         3.72345         5.24949
     2019.71252         3.20996         5.26592
     2019.71526        -0.04152         5.23854
     2019.71800         3.34500         5.40462
     2019.72073         2.67152         5.25497
     2019.72347         0.04903         5.09620
     2019.72621        -1.46745         5.10988
     2019.72895        -3.96693         5.16372
     2019.73169         4.10959         5.33253
     2019.73442         4.94210         5.24767
     2019.73716         4.33162         5.21391
     2019.73990        10.60414         5.26683
     2019.74264         3.73766         5.11901
     2019.74538         4.05017         5.06426
     2019.74811         4.05569         5.06700
     2019.75085         3.20821         5.05331
     2019.75359         4.32773         5.24767
     2019.75633         2.28424         5.07339
     2019.75906         1.46676         4.96389
     2019.76180         0.38828         4.94838
     2019.76454         3.05080         5.08890
     2019.76728         2.47431         5.23216
     2019.77002         4.64683         5.09985
     2019.77275         0.10635         5.21391
     2019.77549         1.66887         5.20022
     2019.77823         2.34538         5.13543
     2019.78097         7.04290         5.30698
     2019.78371         3.08042         5.20843
     2019.78644        -0.19006         5.12083
     2019.78918         6.83745         5.13361
     2019.79192         8.56897         5.17467
     2019.79466        10.65149         5.16828
     2019.79739         6.23401         5.17193
     2019.80013        10.57752         5.18471
     2019.80287         3.42404         5.21756
     2019.80561         7.13556         5.34439
     2019.80835        -1.45892         5.19201
     2019.81108         1.88259         5.18562
     2019.81382         7.58411         5.14730
     2019.81656         2.92463         5.27139
     2019.81930         0.55115         5.08525
     2019.82175        -2.20881         5.92108
     2019.82751        -1.34130         5.15003
     2019.83025         0.75422         5.23216
     2019.83299         3.24273         5.36812
     2019.83572         0.98425         5.21026
     2019.83846         6.90277         5.28417
     2019.84120         7.34228         5.36082
     2019.84394         4.37880         5.32067
     2019.84668        -1.76968         5.20570
     2019.84941         0.03184         5.33344
     2019.85215         4.82035         5.30333
     2019.85489         5.94087         5.30333
     2019.85763         2.77039         5.25497
     2019.86036         4.05591         5.24311
     2019.86310        -3.07458         5.22212
     2019.86584         1.23294         5.33618
     2019.86858         9.72746         5.20752
     2019.87132         5.42098         5.35260
     2019.87405         2.72449         5.15460
     2019.87679        -1.83899         5.26136
     2019.87953         4.45653         5.20661
     2019.88227        10.53105         5.21938
     2019.88501        13.76256         5.11810
     2019.88774        13.06008         5.22394
     2019.89048        12.18360         5.10532
     2019.89322        10.10312         5.06517
     2019.89596         4.59763         5.13452
     2019.89869        10.58715         5.24219
     2019.90143        11.82767         5.10350
     2019.90417        11.15419         5.13817
     2019.90691         6.86870         5.04784
     2019.90965         8.72622         5.08251
     2019.91238         6.34874         5.20387
     2019.91512        14.60326         5.13908
     2019.91786        16.23077         5.23581
     2019.92060         8.51929         5.15460
     2019.92607         9.33633         5.08525
     2019.92881         0.92284         5.22486
     2019.93155        11.47636         5.16372
     2019.93429         7.98388         5.12448
     2019.93702         3.00840         5.08616
     2019.93976        -0.55609         5.16190
     2019.94250         1.19743         5.14091
     2019.94524        -0.66105         5.21117
     2019.94798        -5.65753         5.23124
     2019.95071        -4.21202         5.48218
     2019.95345         1.33650         5.12266
     2019.95619         6.22002         5.16098
     2019.95893         0.23454         5.15003
     2019.96167         0.20205         5.10076
     2019.96440         5.65157         5.26774
     2019.96714         8.03809         5.32523
     2019.96988         8.45561         5.22029
     2019.97262         1.35812         5.21847
     2019.97535         2.05764         5.19840
     2019.97809         0.23816         5.10167
     2019.98083         1.96368         5.13270
     2019.98357        -1.42881         5.21208
     2019.98631        -0.16729         5.15551
     2019.98904        -0.22977         5.15551
     2019.99178         8.03274         5.26774
     2019.99452         3.06626         5.20752
     2019.99726         8.69778         5.34530
     2020.00000        15.23130         5.32067
     2020.00273         4.67581         5.03141
     2020.00547        10.57033         5.30333
     2020.00821         5.08285         5.37542
     2020.01095         4.95837         5.33892
     2020.01368        -0.81512         5.42834
     2020.01642         0.88040         5.41922
     2020.01916         1.18292         5.41922
     2020.02190         4.14444         5.34804
     2020.02464        -4.60205         5.37359
     2020.02737         3.09747         5.22851
     2020.03011        -3.06801         5.22394
     2020.03285        -2.94749         5.17376
     2020.03559        -5.20798         5.14547
     2020.03833         1.25554         5.07977
     2020.04106         2.91306         5.18562
     2020.04380        -3.77142         5.18471
     2020.04654        -5.35691         5.13726
     2020.04928        -8.09939         5.13178
     2020.05201         2.80413         5.21026
     2020.05475        -1.65535         5.03962
     2020.05749        -6.79184         5.05514
     2020.06023        -0.91332         5.13817
     2020.06297         0.02320         5.10715
     2020.06570        -3.24428         5.37907
     2020.06844         3.18723         5.16555
     2020.07118         2.99175         5.10076
     2020.07392         5.55327         5.08251
     2020.07666        -1.64921         5.09985
     2020.07939         0.81730         5.06882
     2020.08213         0.42482         5.07247
     2020.08487        -1.75566         5.26227
     2020.08761         2.76186         5.19018
     2020.09034         5.74637         5.20661
     2020.09308        -1.14411         5.07977
     2020.09582       -19.35659         5.10988
     2020.09856        -9.14607         5.32249
     2020.10130        -3.64156         5.17923
     2020.10403        -1.69504         5.18106
     2020.10677        -4.08852         5.03962
     2020.10951        -9.39600         5.17467
     2020.11225        -5.55849         5.15916
     2020.11498        -2.17397         5.11171
     2020.11772        -3.79445         5.27869
     2020.12046        -3.00393         5.13543
     2020.12320       -13.49242         5.02502
     2020.12594        -8.87490         5.11262
     2020.12867        -6.72938         5.09802
     2020.13141        -6.45886         5.05149
     2020.13415        -7.02135         5.07247
     2020.13689        -5.86183         5.16007
     2020.13963        -1.28631         5.26957
     2020.14236        -4.98380         5.12631
     2020.14510        -0.06828         5.13361
     2020.14784        -4.84876         5.03324
     2020.15058        -8.31024         5.10076
     2020.15331        -7.22673         5.10988
     2020.15605       -10.87021         5.14730
     2020.15879        -0.85369         5.13087
     2020.16153         0.33183         5.09985
     2020.16427        -2.13366         5.09255
     2020.16700        -0.49214         5.13361
     2020.16974         0.55938         5.07247
     2020.17248        -1.48910         5.16281
     2020.17522         2.11041         5.19292
     2020.17796         1.16293         5.04327
     2020.18069        -4.67155         5.00677
     2020.18343        -4.10303         5.08890
     2020.18617        -4.59152         5.11353
     2020.18891        -1.89400         5.20022
     2020.19164        -4.74348         5.28873
     2020.19438        -7.94696         5.12996
     2020.19712        -2.28245         5.11445
     2020.19986        -6.72693         5.16007
     2020.20533        -1.26689         5.16372
     2020.20807        -1.05738         5.15916
     2020.21081        -7.69086         5.33892
     2020.21355        -9.00934         5.56339
     2020.21629        -9.27982         5.41192
     2020.21902        -4.57031         5.29877
     2020.22176        -4.06479         5.18836
     2020.22450         1.49973         5.25771
     2020.22724        -2.98175         5.10988
     2020.22997         0.29676         5.31246
     2020.23271         0.91528         5.16190
     2020.23545         1.80280         5.19110
     2020.23819        -7.61668         5.11171
     2020.24093         1.12983         5.15277
     2020.24366        -1.51465         5.29056
     2020.24640        -0.24313         5.20022
     2020.24914        -7.49361         5.17650
     2020.25188        -6.07010         5.10167
     2020.25462        -4.55958         5.11901
     2020.25735         1.92194         5.17741
     2020.26009         2.85246         5.22394
     2020.26283         2.96097         5.16920
     2020.26557         0.83949         5.21482
     2020.26830        -0.44799         5.17011
     2020.27104        -2.91747         5.25588
     2020.27378        -1.03896         5.33253
     2020.27652         4.35556         5.31793
     2020.27926         0.49508         5.19931
     2020.28199        -3.29741         5.20022
     2020.28473        -8.14089         5.12905
     2020.28747        -0.20737         5.29694
     2020.29021        -2.39285         5.14730
     2020.29295        -4.33934         5.15003
     2020.29568         5.32618         5.20843
     2020.29842         2.75370         5.14365
     2020.30116         1.94322         5.18197
     2020.30390         1.20873         5.10441
     2020.30663        -4.50575         5.23124
     2020.30937         0.91377         5.37268
     2020.31211        -2.98571         5.29786
     2020.31485        -0.87220         5.27961
     2020.31759        -6.61068         5.14821
     2020.32032         3.28584         5.12905
     2020.32306         1.24536         5.12996
     2020.32580        -0.70813         5.15551
     2020.32854         4.17939         5.20661
     2020.33128        -3.95509         5.17558
     2020.33401        -0.62257         5.23581
     2020.33675         2.58694         5.24311
     2020.33949        -5.77054         5.10897
     2020.34223        -6.27502         5.31702
     2020.34496        -6.58650         5.28691
     2020.34770        -7.99199         5.16555
     2020.35044        -1.96647         5.24311
     2020.35318        -6.95995         5.28508
     2020.35592        -0.20143         5.19840
     2020.35865        -0.13192         5.27869
     2020.36139         1.96760         5.24493
     2020.36413         0.29612         5.13908
     2020.36687         2.35764         5.27596
     2020.36961        -0.17985         5.15642
     2020.37234         0.11967         5.10532
     2020.37508         4.07119         5.19748
     2020.37782         0.12271         5.24584
     2020.38056        -4.56678         5.10715
     2020.38329         4.64474         5.13178
     2020.38603        -1.27274         5.12266
     2020.38877         1.95778         5.24402
     2020.39151         0.51729         5.15733
     2020.39425        -5.11419         5.15095
     2020.39698        -3.49767         5.08890
     2020.39972        -7.38615         5.13726
     2020.40246        -7.09564         5.08981
     2020.40520         1.14588         5.29877
     2020.40794        -2.73960         5.09620
     2020.41067        -5.23708         5.35260
     2020.41341        -3.95057         5.06791
     2020.41615        -1.64405         5.14091
     2020.41889        -0.44553         5.08251
     2020.42162        -7.74501         5.11171
     2020.42436        -7.27850         5.37998
     2020.42710        -1.90598         5.28234
     2020.42984        -5.86046         5.30424
     2020.43258        -1.80795         5.25132
     2020.43531        -6.26643         5.25588
     2020.43805        -2.31691         5.38910
     2020.44079        -6.78539         5.22759
     2020.44353        -2.53488         5.38089
     2020.44626        -4.93236         5.27139
     2020.44900         2.97616         5.27596
     2020.45174         3.71468         5.21664
     2020.45448        -4.33381         5.09437
     2020.45722        -5.13429         5.16098
     2020.45995        -7.68877         5.14365
     2020.46269        -4.55825         5.25588
     2020.46543        -1.82774         5.10715
     2020.46817         1.14078         5.14000
     2020.47091         1.01830         5.24311
     2020.47364        -5.22818         5.23763
     2020.47638         1.62233         5.09529
     2020.47912         0.65885         5.23854
     2020.48186         0.20337         5.13635
     2020.48459        -4.21811         5.15825
     2020.48733         2.41040         5.55244
     2020.49007         1.11992         5.17376
     2020.49281         8.56744         5.27504
     2020.49555         0.66496         5.28234
     2020.49828         3.69447         4.97028
     2020.50102        -4.51101         5.14456
     2020.50376         0.16051         5.09255
     2020.50650        -1.68797         5.01316
     2020.50924        -8.79546         5.06974
     2020.51197         1.55806         5.00404
     2020.51471         2.98658         4.97119
     2020.51745        -0.63590         5.07430
     2020.52019         8.80661         5.19475
     2020.52292         5.80813         5.10715
     2020.52566        -3.37635         5.09346
     2020.52840         5.31517         5.25497
     2020.53114         1.32268         5.31884
     2020.53388         1.73220         5.15003
     2020.53661        -1.52228         5.16372
     2020.53935        -0.17176         5.10806
     2020.54209         5.61975         5.23307
     2020.54483         0.70227         5.11901
     2020.54757         5.99679         5.08342
     2020.55030         7.12131         5.15460
     2020.55304         4.15782         5.17102
     2020.55578        -1.97766         5.22121
     2020.55852        10.37086         5.17285
     2020.56125        10.15138         5.08981
     2020.56399         3.57689         5.24402
     2020.56673        -0.97359         5.12813
     2020.56947         2.49493         5.06700
     2020.57221         6.66345         5.21026
     2020.57494         7.48396         5.21391
     2020.57768         8.26548         5.32523
     2020.58042         3.16500         5.28599
     2020.58316        -0.26149         5.17376
     2020.58590        -2.57997         5.19931
     2020.58863        -7.97845         5.33253
     2020.59137         7.97907         5.17285
     2020.59411        10.45658         5.28326
     2020.59685         8.32310         5.46940
     2020.59958        -3.57738         5.34713
     2020.60232         0.35414         5.27869
     2020.60506        -0.26635         5.25771
     2020.60780         5.15717         5.18836
     2020.61054         6.35369         5.25132
     2020.61327        11.42521         5.29238
     2020.61601         5.74972         5.20661
     2020.61875         1.13224         5.18015
     2020.62109        -4.47790         6.18935
     2020.62696         0.84779         5.26866
     2020.62970        10.54431         5.18106
     2020.63244         8.56283         5.37542
     2020.63518         5.99635         5.35169
     2020.63791         9.78886         5.40005
     2020.64065         5.90538         5.28417
     2020.64339        -2.88610         5.17193
     2020.64613         8.86442         5.27504
     2020.64887         1.94093         5.28782
     2020.65160         6.38545         5.28417
     2020.65434        -4.45303         5.17832
     2020.65708         5.75749         5.22394
     2020.65982         3.81900         5.22212
     2020.66256         1.29252         5.26774
     2020.66529         9.72404         5.28691
     2020.66803         3.89256         5.27322
     2020.67077         6.83907         5.17558
     2020.67351         3.86159         5.20935
     2020.67624        -4.24489         5.23307
     2020.67898         0.87063         5.12357
     2020.68172         2.27714         5.16190
     2020.68446        -3.24634         5.30151
     2020.68720         0.81218         5.21391
     2020.68993         0.48570         5.14000
     2020.69267         4.31021         5.18380
     2020.69541         5.70573         5.35990
     2020.69815         1.57425         5.21664
     2020.70089         3.78977         5.10167
     2020.70362        -1.13172         5.12722
     2020.70636        -4.46720         5.35625
     2020.70910        -1.34568         5.32249
     2020.71184         0.85384         5.21482
     2020.71457        -2.13365         5.27961
     2020.71731         6.17187         5.28143
     2020.72005        -0.98261         5.40370
     2020.72279         3.68891         5.15916
     2020.72553         3.98642         5.31337
     2020.72826         9.82294         5.27231
     2020.73100         3.82746         5.46119
     2020.73374         7.03597         5.18653
     2020.73648         7.45949         5.17376
     2020.73830         2.78950         8.80816
     2020.74195         3.30853         5.02959
     2020.74469        -0.55896         5.05514
     2020.74743        -2.07444         5.21208
     2020.75017        -0.09092         6.29793
     2020.75290         2.57460         5.11353
     2020.75564         0.38411         5.09711
     2020.75838         1.65163         5.04784
     2020.76112         0.29115         5.15186
     2020.76386         1.53267         5.08160
     2020.76659         1.74218         5.04966
     2020.76933         6.21870         5.16828
     2020.77207         0.97822         5.05879
     2020.77481         7.12474         5.09894
     2020.77754         4.27925         5.04145
     2020.78028         7.63677         5.31428
     2020.78302        -0.66571         5.15916
     2020.78576         8.58381         5.09164
     2020.78850        -5.14368         5.14273
     2020.79123        -2.79016         5.17650
     2020.79397        14.81136         5.11353
     2020.79671         5.29588         5.23581
     2020.79945         2.96639         5.13908
     2020.80219         0.50691         5.26774
     2020.80492        -4.07257         5.20935
     2020.80766        -4.10205         5.24128
     2020.81040         0.30146         5.28964
     2020.81314        -1.16302         5.23763
     2020.81587        -1.77750         5.23854
     2020.81861        -0.90598         5.21026
     2020.82135         0.73453         5.14730
     2020.82409         2.01405         5.15460
     2020.82683        -1.20543         5.20570
     2020.82956        -1.96791         5.32979
     2020.83230         4.61960         5.35808
     2020.83504        -1.42588         5.19383
     2020.83778         4.16564         5.12905
     2020.84052         1.06016         5.11901
     2020.84325        -0.74833         5.30059
     2020.84599         2.52019         5.33253
     2020.84873        11.14171         5.05149
     2020.85147         4.95723         5.04327
     2020.85694         8.53726         5.08251
     2020.85968         8.90578         5.16463
     2020.86242         8.71730         5.10076
     2020.86516         8.26881         5.28782
     2020.86789        14.19933         5.27322
     2020.87063        12.38485         5.26136
     2020.87337         9.02236         5.29786
     2020.87611         9.59588         5.47579
     2020.87885        10.96440         5.27322
     2020.88158         6.86192         5.38454
     2020.88432         9.22843         5.20843
     2020.88706        -1.59505         5.48674
     2020.88980        -1.05353         5.35625
     2020.89253         4.83299         5.18015
     2020.89527         7.07850         5.44476
     2020.89801         4.16702         5.23216
     2020.90075         4.32854         5.29238
     2020.90349         3.99606         5.29603
     2020.90622         1.61157         5.20478
     2020.90896        -1.93191         5.42834
     2020.91170         3.11061         5.42013
     2020.91444         2.39313         5.36994
     2020.91718        -1.29536         5.10441
     2020.91991        -2.31084         5.26774
     2020.92168       -10.50692         9.85660
     2020.92431       -10.75159        11.94436
     2020.93908        -5.38922         5.26501
     2020.94182        -4.32670         5.30972
     2020.94455        -6.11318         5.23307
     2020.94729       -10.00066         5.14365
     2020.95003        -9.52115         5.29329
     2020.95277       -14.24363         5.26318
     2020.95551        -8.75211         5.19201
     2020.95824        -5.49359         5.17558
     2020.96098        -3.92108         5.18380
     2020.96372        -4.69256         5.12357
     2020.96646        -6.93904         5.27596
     2020.96919        -2.48552         5.27504
     2020.97193        -1.43901         5.19475
     2020.97467         1.20651         5.16920
     2020.97741        -6.23197         5.28052
     2020.98015        -2.07045         5.48491
     2020.98288        -5.83594         5.22759
     2020.98562         7.24858         5.15551
     2020.98836         0.96410         5.12631
     2020.99110        -1.15338         5.07704
     2020.99384        -1.87487         5.10167
     2020.99657         0.54165         5.18197
     2020.99931         4.89417         5.09529
     2021.00205        -5.26531         5.05970
     2021.00479        14.35220         5.05879
     2021.00752         7.41372         5.08525
     2021.01026         6.51924         5.09072
     2021.01300         2.47576         5.17832
     2021.01574         8.81327         5.17558
     2021.01848         0.22379         5.06882
     2021.02121        -8.14769         5.14456
     2021.02395        -5.41718         4.97849
     2021.02669        -2.78766         5.09346
     2021.02943        -2.78614         5.10259
     2021.03216         3.22238         5.18197
     2021.03450         7.47824         6.42659
     2021.04038        -7.55707         5.10259
     2021.04312        -2.22255         5.12357
     2021.04585        -3.55904         5.15003
     2021.04859        -6.83052         5.13726
     2021.05133        -6.76700         5.33800
     2021.05407         1.69352         5.42104
     2021.05681        -4.19697         5.19657
     2021.05954        -7.12945         5.18015
     2021.06776         0.07110         5.07339
     2021.07049         1.31562         5.06426
     2021.07323         9.47714         5.23946
     2021.07597        -0.69834         5.16098
     2021.07871        -1.89883         5.09620
     2021.08145        -3.99931         5.12996
     2021.08418        -8.27279         5.32432
     2021.08692         3.00473         5.34348
     2021.08966        -4.10176         5.11080
     2021.09240        -6.93624         5.19931
     2021.09514        -7.42572         5.39823
     2021.09813       -11.10578         5.88914
     2021.10061        -1.76069         5.20296
     2021.10335        -4.94017         5.07430
     2021.10609        -5.75165         5.15825
     2021.10882        -6.77313         5.27322
     2021.11156        -8.94162         5.20570
     2021.11430       -14.12310         5.21117
     2021.11704       -14.65258         5.16007
     2021.11978        -9.15006         5.09529
     2021.12251       -14.79155         5.06517
     2021.12525       -21.02703         5.19566
     2021.12799        -1.26251         5.15003
     2021.13073        -5.56699         5.11627
     2021.13347        -6.31148         5.31154
     2021.13620        -8.85796         5.15368
     2021.13894       -11.62744         5.14365
     2021.14168       -10.41292         5.19201
     2021.14442       -13.58941         5.14365
     2021.14715        -8.01689         5.18015
     2021.14989        -8.91537         5.16555
     2021.15166        -6.94345        10.73441
     2021.16358       -10.48978         5.05422
     2021.16632        -4.39127         5.05514
     2021.16906        -2.88875         4.94473
     2021.17180        -6.30723         5.08342
     2021.17425       -11.14819         5.95575
     2021.17790        -3.02516         6.84451
     2021.18001        -8.91868         5.07247
     2021.18275        -9.07616         5.24584
     2021.18548        -9.11765         5.10623
     2021.18822        -4.18013         5.06152
     2021.19096        -4.32261         4.99947
     2021.19370       -10.10309         4.96754
     2021.19644        -7.81058         4.99126
     2021.19917       -11.54106         5.05240
     2021.20191        -3.82354         5.03962
     2021.20465        -4.16902         5.06791
     2021.20739       -11.36751         4.98488
     2021.21013         6.24701         5.15277
     2021.21286        -1.38547         5.22121
     2021.21560        -7.29495         5.02137
     2021.21834        -6.75844         4.97666
     2021.22108        -7.25292         5.09072
     2021.22381       -11.41740         5.04692
     2021.22655        -3.65888         5.05787
     2021.22929         1.33463         5.03689
     2021.23203        -1.71285         5.00221
     2021.23477        -8.76033         5.12357
     2021.23750       -11.15581         5.12083
     2021.24024        -7.18530         5.17650
     2021.24298        -7.63778         5.00677
     2021.24572       -10.82126         5.03141
     2021.25119        -2.47823         5.06791
     2021.25393        -5.86871         5.13817
     2021.25667        -8.07319         5.15277
     2021.25941        -4.43367         5.14730
     2021.26214        -2.05616         5.05331
     2021.26488         0.36436         5.20661
     2021.26762         3.26588         5.17650
     2021.27036        -4.48360         5.10897
     2021.27310         2.14991         5.03871
     2021.27583        -5.00057         5.00951
     2021.27857        -6.66105         5.12631
     2021.28131        -0.02353         5.13543
     2021.28405        -3.13302         5.16737
     2021.28679         2.74650         5.15825
     2021.28952         1.64802         5.11536
     2021.29226        -4.67546         5.10623
     2021.29500        -2.21695         5.15095
     2021.29774        -4.39743         5.29786
     2021.30047        -3.84991         5.15186
     2021.30321         5.48261         5.12175
     2021.30595         6.98712         5.24858
     2021.30869         8.74464         5.81249
     2021.31143         2.50816         5.11080
     2021.31416         6.23568         5.09255
     2021.31690         8.89219         5.07795
     2021.31964         0.99571         5.31154
     2021.32238        -0.11677         5.23307
     2021.32512        -7.91126         5.10259
     2021.32785        -0.65974         5.14638
     2021.33059         9.55478         5.24949
     2021.33333         2.62930         5.20752
     2021.33607        -3.96819         5.17558
     2021.33880        -2.35067         5.09529
     2021.34154        -0.02215         5.09346
     2021.34428        -0.20663         5.20113
     2021.34702       -10.17712         5.14912
     2021.34976        -1.29860         5.07886
     2021.35249        -7.29308         5.02867
     2021.35523        -8.25756         5.07612
     2021.35797        -4.37505         5.05331
     2021.36071        -6.12653         5.11992
     2021.36344        -1.65301         5.06426
     2021.36618       -12.44249         5.07977
     2021.36892        -6.51798         5.16190
     2021.37166        -0.02646         5.10259
     2021.37440        -2.63194         5.12540
     2021.37616        -5.35102         9.65221
     2021.37987        -5.70591         5.36264
     2021.38261        -1.71139         5.51594
     2021.38535        -3.35887         5.25679
     2021.38809        -3.96535         5.19110
     2021.39082        -1.69084         5.11080
     2021.39356        -7.86732         5.13817
     2021.39630        -8.93580         5.19383
     2021.39904        -8.07428         5.08890
     2021.40164         1.69301         5.38454
     2021.40477        -0.56883         5.82071
     2021.40725        -3.63273         5.15368
     2021.40999        -4.16721         5.07065
     2021.41273        -4.65770         5.10715
     2021.41546        -2.02218         5.14638
     2021.41820        -4.73466         5.10806
     2021.42094         0.67586         5.19110
     2021.42368        -3.70263         5.16098
     2021.42642         5.28789         5.19383
     2021.42915         7.55541         5.18653
     2021.43189         1.95593         5.09437
     2021.43463        -2.53556         5.12083
     2021.43737        -3.12204         5.07339
     2021.44010        -2.24252         5.21664
     2021.44284        -8.66700         5.24949
     2021.44558        -1.20149         5.28691
     2021.44832        -3.08097         5.23763
     2021.45106         1.91155         5.33709
     2021.45379        -4.24093         5.35534
     2021.45653        -7.75442         5.24128
     2021.45927         2.66810         5.09164
     2021.46070         1.50845        74.66181
     2021.47296         5.33769         5.41283
     2021.47570        -3.22880         5.30059
     2021.47843        -3.03228         5.35260
     2021.48117        -4.09276         5.24311
     2021.48391        -6.26224         5.16646
     2021.48665        -2.23273         5.13361
     2021.48939        -0.24921         5.23854
     2021.49212         1.04431         5.34074
     2021.49486         3.55683         5.23854
     2021.49760         6.12034         5.35990
     2021.50034        -0.19914         5.45206
     2021.50308         2.06638         5.15277
     2021.50581        -5.70210         5.12813
     2021.50855         1.06741         5.05879
     2021.51129        -1.98707         5.03780
     2021.51403         2.06645         5.14182
     2021.51676         7.13697         5.09894
     2021.51950        -0.23752         5.28417
     2021.52224        -1.98300         5.08799
     2021.52498        -0.22748         5.08069
     2021.52772        -2.74696         5.11353
     2021.53045         4.75155         5.12175
     2021.53319        -2.79093         5.15003
     2021.53593        -2.48641         5.30881
     2021.53867         1.81911         5.46940
     2021.54141        -2.53738         5.24949
     2021.54414         0.99514         5.25771
     2021.54688        -1.14034         5.22851
     2021.54962        -1.00482         5.26866
     2021.55509        -1.26679         5.37268
     2021.55783        -3.76127         5.35625
     2021.56057        -0.42575         5.21117
     2021.56331        -1.42224         5.31428
     2021.56605        -1.23972         5.21573
     2021.56878        -0.65820         5.17741
     2021.57152        -1.62768         5.33709
     2021.57426        -6.63017         5.35260
     2021.57700         8.43935         5.81432
     2021.57974        -2.95613         5.22029
     2021.58247        -4.72761         5.10988
     2021.58521       -11.24210         5.30424
     2021.58795        -1.58058         5.38454
     2021.59069        -2.04006         5.24037
     2021.59342        -6.18754         5.26592
     2021.59616        -2.07603         5.37177
     2021.59890         0.04349         5.31519
     2021.60164         5.44901         5.57069
     2021.60438        -0.25347         5.17193
     2021.60711        -2.48596         5.14091
     2021.60985        -0.78244         5.19201
     2021.61259         3.37508         5.14000
     2021.61533        -8.57241         5.19475
     2021.61807        -1.18289         5.25588
     2021.62080        -2.34337         5.17285
     2021.62354        -0.72685         5.24858
     2021.62628         6.00166         5.36812
     2021.62902         5.34218         5.26136
     2021.63175        -1.69930         5.30333
     2021.63449         2.90322         5.09894
     2021.63723         4.11573         5.43199
     2021.63997         3.24725         5.13817
     2021.64271        -0.29723         5.22942
     2021.64544        -0.36871         5.08707
     2021.64818         2.30280         5.06882
     2021.65092         6.35432         5.18380
     2021.65366        -5.84916         5.29694
     2021.65639        -1.24564         5.01590
     2021.65913         1.94487         5.16646
     2021.66187         3.92939         5.16920
     2021.66461         0.71391         5.16920
     2021.66735         2.46643         5.19383
     2021.67008        -0.56106         5.09894
     2021.67282         4.80446         5.16737
     2021.67556         0.84398         5.33435
     2021.67830        -1.69650         5.29147
     2021.68104         6.59201         5.08799
     2021.68377         3.66353         5.00312
     2021.68651         4.35405         5.16281
     2021.68925         5.90457         5.12540
     2021.69199         1.89508         5.16555
     2021.69472       -11.03840         5.15277
     2021.69746        -1.35288         5.14547
     2021.70020         3.39964         5.27139
     2021.70294        -0.21985         5.15460
     2021.70568         3.21767         5.17467
     2021.70841         1.90319         5.08069
     2021.71115         5.03971         5.17832
     2021.71389        12.04922         5.30698
     2021.71663         5.10574         5.12996
     2021.71937        -1.80974         5.06152
     2021.72210        -4.55822         5.04784
     2021.72484        -4.53371         5.00677
     2021.72758         1.61081         5.11080
     2021.73032        -1.27867         5.38545
     2021.73305         8.22885         5.04054
     2021.73579         8.05636         5.17923
     2021.73853        13.73488         5.24219
     2021.74127         5.18940         5.05057
     2021.74401         3.25992         5.13817
     2021.74674         5.27043         5.13817
     2021.74948        -0.72705         5.24584
     2021.75222        -4.03753         5.21300
     2021.75496         3.75399         5.22668
     2021.75770         4.54450         5.19110
     2021.76043         7.23802         5.14730
     2021.76317         8.06354         5.52324
     2021.76591         4.52105         5.22577
     2021.76865         2.10157         5.15825
     2021.77138         6.06509         5.20205
     2021.77412         8.42161         5.27139
     2021.77686        11.29312         5.28143
     2021.77960        11.72864         5.94298
     2021.78234         6.26316         5.60901
     2021.78507        10.92968         5.94207
     2021.78781         5.08519         5.13178
     2021.79009         4.40796         6.69486
     2021.79603         9.09575         5.12266
     2021.79876         5.42126         5.37724
     2021.80150        11.79778         5.44111
     2021.80424        12.99230         5.24219
     2021.80698        11.28582         5.29603
     2021.80971         2.15133         6.18479
     2021.81245        19.74785         5.94937
     2021.81519         6.40537         5.20113
     2021.81793         6.77689         5.13817
     2021.82067         8.55140         5.39458
     2021.82340         5.53392         6.39922
     2021.82614        10.88244         5.18562
     2021.82888         6.48896         5.30333
     2021.83162         6.03847         5.49130
     2021.83436         6.95099         6.09628
     2021.83709         5.20851         5.25223
     2021.83983        -4.84197         6.10449
     2021.84240         3.68026         9.03537
     2021.84531        -5.77894         6.86823
     2021.84690        -6.34230        12.04290
     2021.85447         6.94317        10.02450
     2021.85512         2.20325        12.20168
     2021.85987        -1.83792         8.56179
     2021.86062        -0.51868        11.32296
     2021.86473        -3.49989         5.94572
     2021.86721        -3.37880         5.33709
     2021.86995         0.84172         5.32341
     2021.87269        -1.58476         5.10897
     2021.87542        -3.53825         5.20843
     2021.87816        -4.73673         5.13361
     2021.88090        -0.65921         5.12266
     2021.88364         4.55331         5.48948
     2021.88637        -2.21318         5.06335
     2021.88911        -5.32366         5.06974
     2021.89185        -7.54314         5.07886
     2021.89459         2.33538         5.15003
     2021.89733         0.87389         5.07795
     2021.90006        -5.41059         5.04875
     2021.90280        -0.78307         5.16920
     2021.90554        -6.94555         5.32249
     2021.90828         0.68596         5.16463
     2021.91102         2.96948         5.16007
     2021.91375        -1.73900         5.11901
     2021.91649        -2.85749         5.14638
     2021.91923        -0.11897         5.28234
     2021.92197        -6.93345         5.43473
     2021.92470        -4.95193         5.16555
     2021.92744         2.33358         5.21391
     2021.93018        -6.15690         5.12448
     2021.93292         9.93962         5.33527
     2021.93566         9.36014         5.50681
     2021.93839         4.90665         6.02510
     2021.94113         2.85617         7.03339
     2021.94387        15.12869         6.06160
     2021.94661         2.98021         5.24219
     2021.94935         3.16672         5.95667
     2021.95208        -3.87776         7.42393
     2021.95482         8.80276         7.30987
     2021.95756        10.69228         7.88656
     2021.96030         2.77079         6.03970
     2021.96303         0.80931         5.86086
     2021.96577         9.19383         6.25961
     2021.96851         3.95235         7.46317
     2021.97125         7.67786         6.06160
     2021.97399         7.03638         6.80436
     2021.97672         8.09790         6.03149
     2021.97946        12.62042         6.83447
     2021.98220        13.12493         6.41291
     2021.98494         9.68745         5.86907
     2021.98767        15.40997         6.83812
     2021.99041         4.76149         6.12182
     2021.99315         4.32900         7.91485
     2021.99561         2.78506         8.95507
     2021.99888       -17.74354         5.65099
     2022.00136       -14.70544        11.93614
     2022.00410       -29.68993         9.38303
     2022.00684        -3.93041         5.99864
     2022.00958        -8.00589         6.13916
     2022.01505        -0.80486         6.27238
     2022.01779         6.12266         8.33276
     2022.02053        12.62518         8.80543
     2022.02213         0.60581        13.64339
     2022.02704       -10.43409        11.05834
     2022.02874        -0.85627         7.55168
     2022.03148        -3.98075         7.25969
     2022.03422        -9.00823         7.07902
     2022.03696        -7.26272         7.96960
     2022.03969       -10.79720         7.04799
     2022.04243        -7.65468         5.20752
     2022.04517        -3.35016         5.21391
     2022.04791        -3.80865         5.15551
     2022.05065        -5.76013         5.18927
     2022.05338        -5.07461         5.17193
     2022.05612       -14.53510         5.19201
     2022.05886       -17.39658         5.19201
     2022.06160       -11.66406         5.23124
     2022.06433        -5.00854         5.19292
     2022.06707       -10.60603         5.21208
     2022.06981        -3.78051         5.30972
     2022.07255       -16.51599         5.21756
     2022.07529        -7.42847         5.11262
     2022.07802        -5.11296         5.10259
     2022.08076         1.97956         5.19201
     2022.08350         3.56108         5.26683
     2022.08624        -1.81440         5.20205
     2022.08898        -2.00089         5.21664
     2022.09171        -9.20437         5.07521
     2022.09445       -11.48085         5.17193
     2022.09719       -11.01333         5.19475
     2022.09993        -9.49782         5.29877
     2022.10266        -8.25730         5.25679
     2022.10540        -5.27978         5.19840
     2022.10814        -3.92426         5.18197
     2022.11088        -3.65275         5.07521
     2022.11362        -5.34823         5.17011
     2022.11635        -3.29471         5.21482
     2022.11909        -4.32219         5.01316
     2022.12183        -1.43068         5.21664
     2022.13278        -8.38661         5.16555
     2022.13552        -5.49909         5.01590
     2022.13826         2.66643         5.09985
     2022.14099        -2.17005         5.06882
     2022.14373        -8.23854         5.10532
     2022.14647         8.74898         7.70315
     2022.14921         0.33850         5.27139
     2022.15195        -2.99298         5.23672
     2022.15468        -0.04547         5.02046
     2022.15742        -4.36895         5.17650
     2022.16016         0.69957         5.17558
     2022.16290         2.59809         5.01590
     2022.16564        -2.36840         5.02685
     2022.16837         3.20612         5.05240
     2022.17111        -3.54436         5.13908
     2022.17385         0.68516         5.11262
     2022.17659        -0.32633         5.04601
     2022.17932       -10.11281         5.17832
     2022.18206        -6.78929         5.14273
     2022.18480       -10.79977         5.12266
     2022.18754        -6.09226         5.21756
     2022.19028        -4.64074         5.16372
     2022.19301        -0.47822         5.09802
     2022.19575         5.45630         5.15825
     2022.19849        -5.70219         5.12448
     2022.20123        -1.42267         5.14456
     2022.20397         3.31485         5.21756
     2022.20670        -4.12064         5.25862
     2022.20944         2.76788         5.21208
     2022.21218         1.96040         5.18197
     2022.21492        -7.31608         5.21847
     2022.21765        -3.87657         5.19475
     2022.22039        -6.30905         5.14273
     2022.22313       -10.86153         5.18836
     2022.22587        -7.72701         5.25679
     2022.22861        -3.89350         5.24584
     2022.23134        -0.61198         5.24676
     2022.23408         2.53254         5.15186
     2022.23682         2.36906         5.31063
     2022.23956        -4.37143         5.18015
     2022.24230        -2.60891         5.16555
     2022.24503         2.27361         5.13452
     2022.24777         5.11813         5.75136
     2022.25051        -3.65436         5.11262
     2022.25325        -1.28584         5.13635
     2022.25598         1.16568         5.20205
     2022.25872         0.30320         5.14182
     2022.26146        -2.73329         5.20752
     2022.26420        -4.96677         5.10897
     2022.26694        -6.36525         5.22303
     2022.26967        -4.05573         5.15733
     2022.27241         0.83878         5.18288
     2022.27515         4.87530         5.27778
     2022.27789         2.65682         5.12996
     2022.28062        -5.88766         5.16737
     2022.28336        -2.42915         5.14912
     2022.28610        -5.33763         5.22668
     2022.28884        -6.46411         5.25223
     2022.29158        -5.37459         5.15095
     2022.29431        -1.70308         5.17467
     2022.29705        -2.64156         5.09255
     2022.29979         1.44296         5.12813
     2022.30253        -1.66352         5.22212
     2022.30527        -3.71701         5.14182
     2022.30800        -6.38349         5.10076
     2022.31074        -4.30497         5.04327
     2022.31348        -4.96045         5.17102
     2022.31622        -4.61294         5.06700
     2022.31895       -21.05242         5.26774
     2022.32169         1.93610         5.21938
     2022.32443        -5.35738         5.06426
     2022.32717        -8.22287         5.12540
     2022.32991        -6.22435         5.05696
     2022.33264        -8.59583         5.38089
     2022.33538        -4.96131         5.98678
     2022.33812        -5.58880         5.26866
     2022.34086         0.64372         5.10623
     2022.34360        -0.25176         5.36812
     2022.34633        -1.69524         5.45389
     2022.34907        -3.13573         5.59989
     2022.35181         3.38879         6.07255
     2022.35455        -3.11069         5.89462
     2022.35728        -5.47718         6.27695
     2022.36002        -2.01066         5.16555
     2022.36276        -3.95314         5.53145
     2022.36550        -4.74962         5.48765
     2022.36824        -5.00211         5.12905
     2022.37097        -6.00059         5.11262
     2022.37371       -15.44307         5.31976
     2022.37645        -4.68755         5.30972
     2022.37919         1.14896         5.55335
     2022.38193        -7.77752         5.18288
     2022.38466        -6.00900         5.22121
     2022.38740       -21.55248         5.16190
     2022.39014        -5.18397         5.32614
     2022.39288        -5.01445         5.80246
     2022.39561        -6.34193         5.18106
     2022.39835        -5.47641         5.30881
     2022.40109        -2.89390         5.35990
     2022.40383        -4.66138         5.50681
     2022.41204        -0.30683         5.61631
     2022.41478        -9.92431         5.07795
     2022.41752        -8.93279         5.27048
     2022.42026        -1.47527         5.32797
     2022.42299        -2.31676         5.05240
     2022.42573         1.37376         5.35078
     2022.42847        -3.04272         5.30698
     2022.43121        -8.48920         5.47488
     2022.43394         7.48431         5.14547
     2022.43668        -4.64017         5.12357
     2022.43942        -5.23965         5.21938
     2022.44216        -0.91313         5.12357
     2022.44490         7.87338         5.65920
     2022.44763         1.13190         5.18927
     2022.45037        -0.80858         5.63639
     2022.45311       -10.24306         5.45663
     2022.45585         0.20945         5.14456
     2022.45859       -12.89003         5.15368
     2022.46132        -2.93651         5.02229
     2022.46406        -4.75199         5.44020
     2022.46680        -8.12248         5.06335
     2022.46954        -5.65796         5.10076
     2022.47227       -17.53644         5.12357
     2022.47501        -1.45892         5.19018
     2022.47775        -2.13741         5.19657
     2022.48049        -6.67989         5.02959
     2022.48323         1.56763         5.01225
     2022.48596         3.08815         5.17650
     2022.48870        -4.14834         5.11627
     2022.49144        -4.98582         5.06791
     2022.49384        -2.81587         6.02145
     2022.49717        -4.45936         5.64916
     2022.49960        -6.79036         5.14730
     2022.50787         3.02028         5.39367
     2022.51060        -6.48320         5.25679
     2022.51334        -8.60968         5.12266
     2022.51608        -4.23316         5.13908
     2022.51882       -10.42865         5.14091
     2022.52156        -8.87113         5.28143
     2022.52429         0.98339         5.14091
     2022.52703         5.32391         5.17650
     2022.52977         6.77742         5.13270
     2022.53251         1.51494         5.17285
     2022.53525        -5.69354         5.31519
     2022.53798         0.99598         5.09255
     2022.54072        -0.43651         5.18745
     2022.54346        -4.14799         5.22942
     2022.54620         1.58653         5.12175
     2022.54893         4.57205         5.11627
     2022.55167         4.83856         5.18015
     2022.55441         3.88508         5.12357
     2022.55715         5.68360         5.13726
     2022.55989         5.42112         5.21664
     2022.56262        -0.31737         5.09985
     2022.56536        -4.34085         5.17011
     2022.56810        -2.03633         5.22029
     2022.57056         3.37272         5.91195
     2022.57383         5.51113         5.64460
     2022.57631        -1.45978         5.10259
     2022.57905         3.48074         5.13817
     2022.58179         7.87226         5.16190
     2022.58453        12.40377         5.46301
     2022.58726        -7.44071         5.33800
     2022.59000         6.02081         5.27687
     2022.59274        -7.84867         5.22029
     2022.59548         5.77884         5.08069
     2022.59822       -10.58264         5.01590
     2022.60095        -9.56412         5.04054
     2022.60369         3.06740         5.18380
     2022.60643         3.93791         5.37359
     2022.60917         3.47943         5.26592
     2022.61190         6.57495         5.22029
     2022.61464         9.25847         5.16555
     2022.61738         6.74898         5.04327
     2022.62012         0.97750         5.14456
     2022.62286         6.92802         5.02776
     2022.62559         7.49254         5.10806
     2022.62833         2.32605         4.98670
     2022.63107         8.47857         5.07704
     2022.63381        14.35409         4.99856
     2022.63655         9.04861         5.03597
     2022.63928         6.22112         5.00221
     2022.64202         6.74864         5.47488
     2022.64476         8.33416         5.34622
     2022.64716        12.83812         5.85629
     2022.65050        14.75362         5.75501
     2022.65297         9.62271         5.34622
     2022.65571        11.83323         5.16828
     2022.65845        12.98574         5.08890
     2022.66119        10.41926         4.94746
     2022.66392        11.79878         5.05331
     2022.66666        11.34730         5.13452
     2022.66940        12.74081         5.13543
     2022.67214        11.22533         5.27413
     2022.67488        10.53985         5.00951
     2022.67761        15.48737         5.08342
     2022.68035        13.67688         4.98214
     2022.68309        19.58240         5.16646
     2022.68583         8.10192         5.41922
     2022.68856        14.46144         5.15003
     2022.69130        13.01195         5.11901
     2022.69404        12.58147         5.03780
     2022.69678         9.77099         5.21938
     2022.69952         8.23551         5.29238
     2022.70225        14.36802         5.28143
     2022.70499        13.66054         6.02236
     2022.70773         8.28506         5.21208
     2022.71047         6.50958         5.20387
     2022.71321        14.10209         5.15003
     2022.71594        15.33561         5.25041
     2022.71868         9.47313         5.17285
     2022.72142        14.06465         5.20113
     2022.72383         3.45462         5.99225
     2022.72716        16.64911         5.76687
     2022.72963        11.22120         4.97849
     2022.73237         8.68772         5.07339
     2022.73511         6.88723         5.12448
     2022.73785        11.36375         5.21208
     2022.74058        12.72927         5.38728
     2022.74332        13.54979         5.26774
     2022.74606         9.62630         5.34530
     2022.74880         2.72982         5.06882
