# ================= DQRFIT RESULTS ================
# INPUT FILE: series/SPWY.rad
# OUTPUT: LDETRENDED
# FILTER FUNCTION: f(t)
# f(t)=+line(t)
# line(t)=+P 1+P 2*t
# heav(t)=(t<0?0:1)
# TOTAL OBSERVATIONS MTOT=  189
# INITIAL TIME INTERVAL= 2010.9733 - 2010.2998 =  0.6735
# TOTAL OBSERVATIONS AFTER PREFILTER M=  189
# TIME-SPAN= 2010.9733 - 2010.2998 =  0.6735
# OBSERVATIONS: USED M=   189 REJECTED MTOT-M=     0 %USED=  100.0000
# N=  2 PARAMETERS
# MAXSIG= 175.00000
# MAXRES=  32.67205
# SCALE FACTOR FOR LENGTHS: SCL=  10.00000
# SCALE FACTOR FOR SIGMAS: SCLSIG=   1.00000
# CHI^2=    194.639 DOF=   187 CHI^2/DOF=   1.04085
# RMS=      9.247 SDEV=      9.240 MEAN=   -0.76136
#  P #       PARAMETER +-    SIGMA %error PARAMETER NAME
# P 1 =    -10461.12047 +- 5435.841  51.96 YZERO                              
# P 2 =         5.20400 +-    2.704  51.95 SLOPE                              
#       T            LDETRENDED       SIG_OBS
     2010.29979         4.08690         3.58443
     2010.30253        -0.55278         3.52312
     2010.30527         3.34926         3.57221
     2010.30801         8.88569         3.54548
     2010.31075        -1.93328         3.48036
     2010.31348         1.80385         3.47277
     2010.31622         7.96735         3.44099
     2010.31896         1.45273         3.56723
     2010.32170         2.37164         3.52366
     2010.32444        -2.09080         3.52586
     2010.32717        -6.00718         6.07054
     2010.32991        -3.59312         5.94672
     2010.33265        -7.35078         6.01898
     2010.33539         0.56448         6.12084
     2010.33812        -0.68734         6.03156
     2010.34086       -13.02383         5.88728
     2010.34360        -2.64300         6.01209
     2010.34634        -0.77517         6.11161
     2010.34908        -1.84439         5.97552
     2010.35181         1.33911         6.09894
     2010.35455         3.36737         6.71816
     2010.35729         0.93873        14.21423
     2010.36003        -2.47299         6.01970
     2010.36277        -0.75480         5.97140
     2010.36550         0.89537         6.26352
     2010.36824         3.89116         6.13887
     2010.37098         5.44153         5.99897
     2010.37372         6.07263         5.93095
     2010.37645        -0.92269         5.98037
     2010.37919        -9.66540         6.19645
     2010.38193       -10.69634         6.15708
     2010.38467        -8.94192         6.04953
     2010.38741        -4.59528         6.19092
     2010.39014       -10.56210         7.13168
     2010.39288        -9.10105         6.58824
     2010.39562        -6.49819         6.22628
     2010.39836        -6.84816         5.92002
     2010.40110        -5.58900         5.91272
     2010.40383        -7.07035         5.94758
     2010.40657       -16.64032         5.96716
     2010.40931        -8.63587         6.08465
     2010.41205        -9.91824         6.02348
     2010.41478        -1.58652         5.97119
     2010.41752        -2.13308        12.84215
     2010.42026        21.59753        26.34875
     2010.42300        14.12775        25.88129
     2010.42574        -1.10416        25.06726
     2010.42847       -10.98535        16.25259
     2010.43121       -28.85632        14.54205
     2010.43395        -5.08416        14.54829
     2010.43669       -30.52982        19.12076
     2010.43943       -18.72949        23.56376
     2010.44216       -16.28373        24.85276
     2010.44490       -32.85642        24.45559
     2010.44764        -1.76558        17.02575
     2010.45038         5.12533        23.01699
     2010.45311        -2.17502         9.77662
     2010.45585       -12.66380         6.88840
     2010.45859       -13.05519        13.18622
     2010.46133        -0.89232        16.56883
     2010.46407        -4.21623        16.75668
     2010.46680         0.83252        15.16839
     2010.46954       -37.76785        22.72461
     2010.47228        -4.79315        22.23814
     2010.47502         5.25908        12.08714
     2010.47775       -15.42937        14.52760
     2010.48049       -22.47749        14.06939
     2010.48323         0.52551         5.89208
     2010.48597        -4.74400         5.89873
     2010.48871        -3.90713         7.26711
     2010.49144        26.51311        23.42844
     2010.49418        -7.00960         6.98159
     2010.49692        -2.06018         5.88293
     2010.49966        -7.35020         5.88924
     2010.50240        -1.17683         5.90224
     2010.50513         3.87722         5.90623
     2010.50787        -8.23675         6.05230
     2010.51061        -1.04257         5.90759
     2010.51335        -1.63358         5.93995
     2010.51608        -4.89711         5.94090
     2010.51882         4.95907         5.94314
     2010.52156        -1.89263         5.95840
     2010.52430         0.50646         5.97129
     2010.52704       -13.14107         5.93668
     2010.52977         3.01771         5.93313
     2010.53251         2.04111         5.93978
     2010.53525         2.09443         5.99221
     2010.53799         1.28986         5.97183
     2010.54073         0.58705         6.12369
     2010.54346        -2.39339         6.60356
     2010.54620         0.84595         5.92779
     2010.54894        10.48520         6.58304
     2010.55168         3.32608         5.95485
     2010.55441         8.52458         6.12669
     2010.55715         2.22671         5.93029
     2010.55989        -1.82087         5.91287
     2010.56263        14.76228         6.11696
     2010.56537         7.37370         5.93592
     2010.56810         5.45740         5.93991
     2010.57084         3.94030         5.95358
     2010.57358        -6.84564         6.02326
     2010.57632         2.87120         6.25344
     2010.57906         1.33572         6.18455
     2010.58179        10.51886         5.90078
     2010.58453        -1.15516         5.91057
     2010.58727        -2.59248         6.02220
     2010.59001        15.97629         6.06957
     2010.59274        10.33726         6.41805
     2010.59548        10.73684         5.92839
     2010.59822         7.58453         5.95301
     2010.60096         1.38922         5.89775
     2010.60370         1.33217         5.96211
     2010.60643         2.38293         6.03101
     2010.60917         6.72351         5.87668
     2010.61191         7.11533         5.91197
     2010.61465         4.35166         5.90794
     2010.61739        12.41326         5.90260
     2010.62012         7.27387         6.12147
     2010.62286         0.56289         6.06394
     2010.62560        -0.50100         5.90156
     2010.62834         0.00372         6.01279
     2010.63107         8.43929         6.05310
     2010.63381         8.42893         5.96333
     2010.63655        15.51333         5.99677
     2010.63929        -4.39942         5.88524
     2010.64203         5.29784         6.53113
     2010.64476         1.50466         6.04367
     2010.64750         4.11549         5.97691
     2010.65024         3.08226         6.07527
     2010.65298         5.14649         6.15331
     2010.65572         6.71097         5.92214
     2010.65845         7.75353         5.86882
     2010.66119         5.50374         5.99744
     2010.66393        -1.16107         5.93533
     2010.66667         6.10854        27.60031
     2010.66940         6.01316        18.83364
     2010.67214        12.95783        15.07129
     2010.67488        12.64326        26.23013
     2010.67762         5.67792        26.36928
     2010.68036       -21.58693        25.48580
     2010.68309         2.87372        24.29545
     2010.68583        10.34867        25.44061
     2010.68857         0.13968        24.25932
     2010.69131         6.08512        24.94887
     2010.69405         3.80363        25.91842
     2010.69678        -5.23930        25.33704
     2010.69952        17.83426        22.17952
     2010.70226        12.16238        27.09279
     2010.70500        -2.51666        11.70863
     2010.70773         1.06399         6.66227
     2010.71321        -1.94417         5.98479
     2010.71595        -1.44511         6.03948
     2010.71869       -12.52152         9.44789
     2010.72142        -1.64347         6.64677
     2010.72416        -2.11256         6.39461
     2010.72690        -5.52621         6.22248
     2010.72964         0.20231         6.03995
     2010.73238        -4.86497         6.02064
     2010.73511         0.88414         6.22768
     2010.73785        -5.77780         6.14986
     2010.74059        -5.68445         6.16876
     2010.74333         4.46500         7.02736
     2010.77892       -19.60603        20.43450
     2010.78166        -0.74603         6.13136
     2010.78439         0.11309         6.21867
     2010.78713        -5.74415         6.06132
     2010.78987         0.24895         5.97695
     2010.79261        -1.06639         5.97039
     2010.79535         0.64994         5.98180
     2010.79808        -6.25140         5.95463
     2010.80082        -1.39773         5.95700
     2010.80356         4.17867         6.07819
     2010.80630       -12.20350         6.05344
     2010.80903         4.81589         5.97701
     2010.81177        -2.32595         6.11113
     2010.81451        -1.76883         6.15617
     2010.81725        -1.50070         6.03264
     2010.81999        -5.67686         6.07886
     2010.82272         4.30981         6.24137
     2010.82546        -0.04773         6.15696
     2010.82820        -1.35543         6.29212
     2010.83094        -4.00209         6.40330
     2010.83368       -16.83229         6.24694
     2010.83641       -11.38155         6.09499
     2010.83915        -0.52083         6.28037
     2010.84189        -9.10785         6.01392
     2010.84463         5.10369         5.94301
     2010.84736        32.67205        23.46747
     2010.97331        -2.22413        11.70710
