# ================= DQRFIT RESULTS ================
# INPUT FILE: series/SQIM.rad
# OUTPUT: LDETRENDED
# FILTER FUNCTION: f(t)
# f(t)=+line(t)+annual(t)
# line(t)=+P 1+P 2*t
# annual(t)=+P 3*sin(2*pi*t+P 4)
# heav(t)=(t<0?0:1)
# TOTAL OBSERVATIONS MTOT= 1695
# INITIAL TIME INTERVAL= 2014.7242 - 2007.3758 =  7.3484
# TOTAL OBSERVATIONS AFTER PREFILTER M= 1691
# TIME-SPAN= 2014.7242 - 2007.3758 =  7.3484
# OBSERVATIONS: USED M=  1691 REJECTED MTOT-M=     4 %USED=   99.7640
# N=  4 PARAMETERS
# MAXSIG= 175.00000
# MAXRES=  24.96496
# SCALE FACTOR FOR LENGTHS: SCL=  10.00000
# SCALE FACTOR FOR SIGMAS: SCLSIG=   1.00000
# CHI^2=   1533.858 DOF=  1687 CHI^2/DOF=   0.90922
# RMS=      5.909 SDEV=      5.911 MEAN=    0.02057
#  P #       PARAMETER +-    SIGMA %error PARAMETER NAME
# P 1 =      2504.65556 +-  195.273   7.80 YZERO                              
# P 2 =        -1.24323 +-    0.097   7.81 SLOPE                              
# P 3 =         5.65688 +-    0.200   3.54 ANNUAL AMPLITUDE                   
# P 4 =        -2.92877 +-    0.049   1.67 ANNUAL PHASE                       
#       T            LDETRENDED       SIG_OBS
     2007.37577        -4.52101         5.79843
     2007.37850        -4.76960         5.58102
     2007.38124         2.64080         5.70784
     2007.38398        -0.19280         5.66684
     2007.38672        -1.89339         5.64491
     2007.38945        -0.89699         5.67161
     2007.39219        -3.15158         5.73359
     2007.39493        -0.22118         5.63537
     2007.39767         1.09722         5.63633
     2007.40041         6.07663         5.68972
     2007.40314        -4.18197         5.60677
     2007.40588        -2.83157         5.60963
     2007.40856        -8.43823         5.89855
     2007.41136        -1.92276         5.62870
     2007.41410         3.95865         5.66016
     2007.41683        -1.41095         5.64586
     2007.41957         2.75945         5.67447
     2007.42231        -0.98614         5.80129
     2007.42505        12.62726         5.88615
     2007.42778         7.11967         5.62774
     2007.43052         4.33307         5.68019
     2007.43326        10.75347         5.75266
     2007.43600        -3.06312         5.86231
     2007.43874        -0.45872         5.71642
     2007.44147        -3.15832         5.76410
     2007.44421         2.37309         5.80224
     2007.44695        -4.56351         5.63156
     2007.44969        -7.30810         5.71070
     2007.45243        -3.68470         5.78889
     2007.45516        -1.81030         5.75742
     2007.45790         3.05411         5.65826
     2007.46064         3.86651         5.70975
     2007.46338         2.03591         5.68305
     2007.46611        -6.31668         5.66398
     2007.46885         4.99272         5.75170
     2007.47159         5.12213         5.71165
     2007.47433         0.70153         5.68591
     2007.47707        -2.77607         5.88520
     2007.47980        -6.05766         5.63537
     2007.48254        -7.49126         5.70307
     2007.48528        -3.00786         5.71738
     2007.48802        -0.00745         5.82036
     2007.49076        11.07195         5.82036
     2007.49349        -0.91964         5.66398
     2007.49623        -1.52324         5.61630
     2007.49897        -2.81784         5.67733
     2007.50171        -3.63543         5.75647
     2007.50444        -9.55603         5.68686
     2007.50616        -9.01490        11.47385
     2007.58110         4.44928         5.93859
     2007.58384         4.06568         5.72214
     2007.58658        -1.46491         5.73549
     2007.58932         4.72649         5.73645
     2007.59206         3.73789         5.66779
     2007.59479         9.83130         5.81178
     2007.59753        10.09070         5.79270
     2007.60027         6.57810         5.59342
     2007.60301         9.04951         5.73168
     2007.60574         3.66391         5.69640
     2007.60848         5.41732         5.72596
     2007.61122        13.21372         5.64872
     2007.61396         3.41112         5.59437
     2007.61670        -0.04547         6.13788
     2007.61943        12.77993         6.12263
     2007.62217        11.99833         6.00153
     2007.62491         7.32374         5.92620
     2007.62765         8.24514         6.01392
     2007.63039        13.23855         5.97388
     2007.63312         5.01395         5.81368
     2007.63586         5.90535         5.81654
     2007.63860        -2.37924         5.79747
     2007.64134         6.25016         5.69831
     2007.64407        13.89556         5.97006
     2007.64681         7.71797         5.99199
     2007.64955        19.08637         6.04062
     2007.65229         6.95878         6.04444
     2007.65503         2.89618         5.92143
     2007.65776        10.97658         5.89664
     2007.66050         8.39899         6.04444
     2007.66324         6.33739         6.06446
     2007.66598        13.56580         6.01869
     2007.66872        10.83520         6.00344
     2007.67145        -0.42640         5.89283
     2007.67419        10.40001         5.98627
     2007.67693        15.91341         5.97578
     2007.67967        16.62481         6.09116
     2007.68240        13.02422         5.96148
     2007.68514         4.81362         6.00630
     2007.68788        13.62703         6.13693
     2007.69062         8.66643         5.93764
     2007.69336        10.43183         5.87852
     2007.69609         9.69624         5.99390
     2007.69883        10.81764         5.90427
     2007.70157        11.95004         5.84038
     2007.70431        10.92345         6.00248
     2007.70705         4.86285         6.11881
     2007.70978        25.71226         6.00153
     2007.71252         3.76966         5.88520
     2007.71526        11.45606         5.67733
     2007.71800        15.73847         5.78412
     2007.72073        12.99487         5.76601
     2007.72347        11.39127         6.12644
     2007.72617         4.26163         5.69068
     2007.72895         4.75808         5.75552
     2007.73169        16.88949         5.84706
     2007.73442        14.32489         5.79652
     2007.73716         3.80629         5.85087
     2007.73990        11.31870         5.86517
     2007.74264        12.56010         5.74026
     2007.74538        14.17050         5.76219
     2007.74811        10.34491         5.82799
     2007.75085        30.48731         6.37054
     2007.75359        13.47872         5.93478
     2007.75633        10.44612         5.72882
     2007.75906         8.14352         5.73645
     2007.76180        12.81993         5.74980
     2007.76454        10.45433         5.93859
     2007.76728        13.05874         6.13598
     2007.77002        11.10214         6.36101
     2007.77275        10.39954         5.99009
     2007.77549         6.25695         5.71165
     2007.77823        12.50235         5.81082
     2007.78097         9.69875         5.75361
     2007.78371        13.18316         5.88329
     2007.78644         7.19856         5.75361
     2007.78918         1.94197         5.86994
     2007.79192         9.53137         6.01106
     2007.79466        12.84677         5.94813
     2007.79739        22.76018         5.96720
     2007.80013        14.38058         5.72977
     2007.80287         7.50098         5.64109
     2007.80561         5.11939         5.77649
     2007.80835         6.53579         5.85468
     2007.81108        10.25620         5.97292
     2007.81382         8.08260         5.83943
     2007.81656         1.68100         5.97006
     2007.81930         4.82941         5.76219
     2007.82203        -0.12419         5.88138
     2007.82477         4.05921         5.98532
     2007.82751         1.36062         5.82703
     2007.83025         4.67302         5.87662
     2007.83299         4.47143         5.65063
     2007.83572         4.26383         5.76219
     2007.83846         4.65723         5.76791
     2007.84120         9.08264         5.69544
     2007.84394        -0.19796         5.66016
     2007.84668         6.09545         5.68782
     2007.84919         3.00257         6.06255
     2007.85215         3.36825         5.89092
     2007.85489         2.99066         6.22656
     2007.85763         1.26306         5.92620
     2007.86036        11.82446         5.70689
     2007.86310        18.19587         6.20844
     2007.86584         5.68727         5.74217
     2007.86858         2.41668         5.75552
     2007.87132         4.41508         5.83371
     2007.87405        14.35048         5.72310
     2007.87679         9.02089         5.66588
     2007.87953         8.14029         5.69640
     2007.88227        -5.38331         5.66493
     2007.88501         8.91710         5.75456
     2007.88774        -2.20450         5.71356
     2007.89048         1.22591         5.63728
     2007.89322        -0.78869         5.90617
     2007.89596         4.77771         5.86994
     2007.89869         1.27412         5.77649
     2007.90132         0.11638         5.95862
     2007.90948         2.49752         6.18270
     2007.91238         6.37714         5.86231
     2007.91512        10.48554         5.82894
     2007.91786        10.21094         5.81845
     2007.92060        17.96035         6.19033
     2007.92334        10.40575         6.04158
     2007.92607        -0.82284         5.78508
     2007.92881         0.57256         5.88901
     2007.93155        -1.62404         5.80891
     2007.93429        -3.07463         5.80701
     2007.93702        -8.58923         5.78031
     2007.93976         0.99117         7.09618
     2007.94142         9.95023        11.83619
     2007.95448        -4.89753        12.47601
     2007.95619         3.29860         5.94718
     2007.95887         9.80393         6.06446
     2007.96263         9.36161        11.73511
     2007.96440        12.00581         7.94006
     2007.96714        -1.51979         6.18175
     2007.96988       -12.05838         5.86517
     2007.97262         5.79002         5.97102
     2007.97535        -3.31958         5.95576
     2007.97809        -5.27017         5.92238
     2007.98083        -3.55777         5.92715
     2007.98357         1.07363         5.77077
     2007.98631         1.53404         5.98818
     2007.98904         2.02444         6.07590
     2007.99178        -0.38015         5.91762
     2007.99452         4.25625         6.36482
     2007.99726        -2.83035         5.70689
     2008.00000       -13.12994         5.89092
     2008.00273        -3.91754         6.14456
     2008.00547         8.30387         5.87185
     2008.00821         6.74727         5.73073
     2008.01095         5.39467         5.72977
     2008.01368         4.30808         5.56862
     2008.01642        -3.07952         5.62202
     2008.01910        -0.87619         5.86994
     2008.02190        -1.24971         5.73931
     2008.02464        -2.99431         5.62298
     2008.02737        -3.53190         5.60677
     2008.03011        -7.09150         5.74026
     2008.03285        -6.92910         5.78508
     2008.03559       -16.70269         5.93669
     2008.03833        -8.26529         5.72119
     2008.04101       -13.55296         5.96434
     2008.04385       -13.65042         5.88043
     2008.04654       -14.80908         5.77268
     2008.04928        -5.72667         5.76410
     2008.05201        -5.67127         5.65349
     2008.05475        -9.60587         5.73359
     2008.05749       -10.10246         5.67065
     2008.06023        -7.48406         5.66684
     2008.06297        -1.52766         5.65254
     2008.06570        -2.20825         5.68019
     2008.06844        -1.30285         5.67733
     2008.07118         1.97056         5.72882
     2008.07392         8.94496         5.80415
     2008.07666         6.78236         5.96529
     2008.07939         1.09677         5.95004
     2008.08213         9.62817         5.78794
     2008.08487        -6.86943         5.69354
     2008.08761        -5.92702         5.67542
     2008.09034        -0.51762         5.60200
     2008.09308        -6.36921         5.72977
     2008.09582        -0.19081         6.02727
     2008.09856        -7.53641         6.14742
     2008.10130         2.65900         5.96720
     2008.10403        -0.95060         5.61916
     2008.10677         4.90181         5.67542
     2008.10951         1.70921         5.78031
     2008.11225        -8.50339         6.20082
     2008.11498       -11.58498         5.91952
     2008.11772        -1.09058         5.70403
     2008.12046        -6.09418         5.63156
     2008.12320       -12.31077         5.95671
     2008.12594        -1.02237         5.68591
     2008.12867        -8.84296         5.69163
     2008.13141        -4.43856         5.65158
     2008.13415         2.40584         5.71833
     2008.13689         3.01025         5.67923
     2008.13963         2.04765         5.76505
     2008.14236        -1.91895         5.84801
     2008.14510        -4.41654         5.75075
     2008.14784         0.60686         5.77268
     2008.15058        -2.95873         5.61249
     2008.15331        -6.64233         5.71928
     2008.15605        -7.33293         5.62679
     2008.15879        -6.84152         5.68782
     2008.16410       -13.60493         7.51383
     2008.16706        -3.43624         7.55006
     2008.16980       -10.96384         5.97483
     2008.17191       -16.95421         8.24805
     2008.17539        -6.21989         6.21989
     2008.17796       -11.81770         5.62393
     2008.18069        -9.74529         5.66684
     2008.18343        -1.77689         5.63442
     2008.18617        -1.48448         5.70879
     2008.18891        -8.42608         5.90331
     2008.19164        -6.19968         5.85850
     2008.19438       -10.28127         5.59532
     2008.19712        -1.24487         5.56958
     2008.19986         0.81053         5.66970
     2008.20260        -4.17406         5.66779
     2008.20533        -8.85666         5.69354
     2008.20807         3.02275         5.79557
     2008.21081        -8.15885         5.79175
     2008.21355        -2.86045         5.69640
     2008.21629        -0.84404         5.63919
     2008.21902        -8.85264         5.79938
     2008.22176       -12.89924         5.69449
     2008.22450         6.50317         5.81368
     2008.22724        -1.36943         5.72310
     2008.22997        -7.46902         5.91476
     2008.23271        -4.69962         5.85182
     2008.23545        -5.23922         6.31429
     2008.23819        -4.16981         5.83752
     2008.24093         6.94859         5.63251
     2008.24366        -0.65701         5.66875
     2008.24640        -1.94160         5.66016
     2008.24914        -9.32420         5.63537
     2008.25188        -1.00879         5.87948
     2008.25462         1.07461         5.54288
     2008.25735         1.56001         5.69735
     2008.26009         1.33542         5.71452
     2008.26283        -0.49918         5.72119
     2008.26557        -2.48277         5.72214
     2008.26830        15.24963         5.66398
     2008.27104         9.69803         5.65158
     2008.27378        -3.43056         5.59723
     2008.27652        -6.58116         5.73740
     2008.27920        -9.26883         5.81940
     2008.28199        -4.75835         6.11118
     2008.28473         3.47605         5.73645
     2008.28747         0.47246         5.74121
     2008.29021         0.43286         5.77268
     2008.29295         0.32126         5.65730
     2008.29568        -8.08133         5.54765
     2008.29842        -0.94693         5.91666
     2008.30116        -0.40653         5.66493
     2008.30390         2.83588         6.03872
     2008.30663        -0.80972         5.64205
     2008.30937        -5.79031         5.67065
     2008.31211        -6.49591         5.65921
     2008.31485        -6.03951         5.63346
     2008.31759        -5.13110         5.65826
     2008.32032        -1.51170         5.78508
     2008.32306         2.89770         5.83085
     2008.32580         2.66211         5.91190
     2008.32854        -0.96349         5.61058
     2008.33128        -1.35408         5.58483
     2008.33401        -0.21268         5.54765
     2008.33675        -2.72228         5.57530
     2008.33949        -2.59087         5.55718
     2008.34223        -3.80647         5.50855
     2008.34496        -3.31706         5.47423
     2008.34770        -5.10966         5.50283
     2008.35044        -5.44426         5.60391
     2008.35318        -5.33185         5.59532
     2008.35592        -6.89845         5.62393
     2008.35865        -1.69605         5.54288
     2008.36139         0.02336         5.53334
     2008.36413         3.44576         5.48662
     2008.36687        -2.72283         5.56195
     2008.36961       -10.66443         5.50188
     2008.37234       -10.16903         5.54383
     2008.37508         3.40838         5.68877
     2008.37782        -2.82322         5.98913
     2008.38056        -7.53582         5.58483
     2008.38335       -13.67634         6.13025
     2008.38603         0.44999         5.59532
     2008.38877        -2.94360         5.68400
     2008.39151        -2.51720         5.63633
     2008.39425        -7.84980         5.89473
     2008.39698        -7.16339         5.67065
     2008.39972         3.33401         5.70593
     2008.40246        -1.32559         5.60677
     2008.40520         3.94382         5.63442
     2008.40794        -0.70678         5.54669
     2008.41067        -1.37137         5.55814
     2008.41341        -4.16397         5.58770
     2008.41615         1.86643         5.62107
     2008.41889         0.70884         5.57339
     2008.42162         9.85524         5.73740
     2008.42436         4.32964         6.21798
     2008.42710         4.53605         5.60486
     2008.42984         2.41545         5.69163
     2008.43258        -1.20514         5.83180
     2008.43531         1.18826         5.77649
     2008.43805         0.04766         5.64300
     2008.44079        12.89107         5.86899
     2008.44353        -9.20453         5.60391
     2008.44626        -6.73112         5.70593
     2008.44900        -7.25572         5.57339
     2008.45174         0.66368         5.73263
     2008.45454         0.45616         5.72310
     2008.45722        -4.39051         5.59437
     2008.45995        -7.44811         5.59437
     2008.46269       -10.06370         5.61630
     2008.46543        -1.12530         5.64777
     2008.46817         2.12011         5.64967
     2008.47091         4.60651         5.70879
     2008.47364        -2.30309         5.71928
     2008.47638        -2.86768         5.71070
     2008.47912        -4.91428         5.77363
     2008.48186         1.94512         5.72977
     2008.48459        -6.40947         5.91666
     2008.48733         1.34493         5.54574
     2008.49007       -10.04666         5.66398
     2008.49281        -2.41926         5.64300
     2008.49555        -0.00686         5.77363
     2008.49828        -4.32545         5.89473
     2008.50102        -3.26105         5.74694
     2008.50376         3.01935         5.85373
     2008.50650         0.78176         5.81464
     2008.50924        -3.21384         5.75266
     2008.51197         4.36157         5.71356
     2008.51471        -1.94103         5.64681
     2008.51745        -1.10263         5.67828
     2008.52019        -3.47022         5.74217
     2008.52292         1.88918         5.88615
     2008.52566         4.26959         5.72119
     2008.52840         0.13599         5.52190
     2008.53108         1.79332         5.91380
     2008.53388        -6.54020         5.71070
     2008.53661        -3.93680         5.68877
     2008.53935         3.31460         5.53144
     2008.54209        -1.07099         5.76028
     2008.54483        -1.78359         5.75075
     2008.54757         2.46882         5.70403
     2008.55030         5.01122         5.78508
     2008.55304         1.48062         5.77554
     2008.55586         4.29812         5.79175
     2008.55852         2.30843         5.69640
     2008.56125        -1.23017         5.68877
     2008.56399         3.60024         5.83752
     2008.56673         5.63564         5.72310
     2008.56947         4.97605         5.64872
     2008.57221         4.74745         5.82608
     2008.57494        -0.45115         5.94432
     2008.57768         1.45626         5.84610
     2008.58042         3.48966         5.70975
     2008.58316        10.21306         5.81559
     2008.58590        13.09647         5.74407
     2008.58863         7.00987         5.82608
     2008.59137        -0.83872         5.64967
     2008.59411         9.03768         5.69354
     2008.59685         3.63308         5.74884
     2008.59958        -0.37051         5.93192
     2008.60232        13.48789         5.97674
     2008.60506         3.35430         5.80987
     2008.60780         0.24770         5.73931
     2008.61054        -4.10190         5.83561
     2008.61327         2.03751         5.76219
     2008.61601         7.43091         5.62965
     2008.61875         4.46031         5.64586
     2008.62149         4.31872         5.71070
     2008.62423         5.91212         5.73454
     2008.62696         3.17353         5.91190
     2008.62970        10.79893         5.87662
     2008.63244        11.82633         5.73740
     2008.63518         5.28174         5.81368
     2008.63791         1.42714         5.80129
     2008.64065         7.50854         5.86231
     2008.64339         2.43595         5.73168
     2008.64613        10.90935         5.91571
     2008.64887         2.19076         5.72310
     2008.65160         5.25416         5.73549
     2008.65434        15.18656         5.97483
     2008.65708         3.71797         6.03586
     2008.65982        -0.39763         5.85278
     2008.66256        11.41277         5.77554
     2008.66529         5.78218         5.72596
     2008.66803        -2.92142         5.98055
     2008.67077        -2.21201         5.86041
     2008.67351        -2.39161         5.95481
     2008.67625        -1.82919         6.24086
     2008.67898         7.40420         5.84229
     2008.68172        -5.30440         5.76982
     2008.68446        -1.80900         5.82608
     2008.68720        -1.34859         5.77649
     2008.68993        -1.96319         5.85182
     2008.69267         5.08522         5.75552
     2008.69541        -0.60138         5.74217
     2008.69815         1.21202         5.96911
     2008.70089        -3.94757         5.71070
     2008.70362        -1.39117         5.69831
     2008.70636         7.50724         5.68019
     2008.70910         3.93564         5.86327
     2008.71184         3.29304         5.93478
     2008.71457        -4.06055         5.71642
     2008.71730        -0.88316         5.96529
     2008.72005         8.98025         6.21131
     2008.72279         8.64866         5.69258
     2008.72553         3.02706         5.81559
     2008.72826        -0.42453         5.91094
     2008.73100         6.69587         5.94718
     2008.73374         6.80427         5.78222
     2008.73648         4.94268         5.85850
     2008.73921         4.33608         5.72596
     2008.74469         0.19189         5.95385
     2008.74743        -2.46771         5.83847
     2008.75017         6.55970         5.73359
     2008.75290        10.54410         5.74598
     2008.75564         4.25450         5.85468
     2008.75838        10.32391         5.99771
     2008.76112         1.13931         5.86136
     2008.76386         6.32871         5.63442
     2008.76659        19.22312         6.10356
     2008.76933        -0.81848         5.79461
     2008.77207         5.82693         5.68019
     2008.77481        -5.94867         5.68209
     2008.77754         0.87673         5.66493
     2008.78028         7.48014         5.57339
     2008.78302         0.97854         5.97197
     2008.78576        -1.28605         5.63823
     2008.78850        -0.38065         5.72786
     2008.79123         0.85975         5.90522
     2008.79397        -0.28584         5.64777
     2008.79671         3.25456         5.62965
     2008.79945        -4.04704         5.59246
     2008.80219         0.76937         5.66112
     2008.80492        -3.64123         5.58007
     2008.80766         3.08818         5.55432
     2008.81040         6.41958         5.68209
     2008.81314         7.48098         5.62679
     2008.81587         1.90539         5.74121
     2008.81861        -7.02921         5.87662
     2008.82135        -3.31981         5.63823
     2008.82409         3.85060         5.67351
     2008.82683         2.66400         5.81845
     2008.82956         2.32141         5.88901
     2008.83230         0.88181         5.63633
     2008.83504        -1.48979         5.91952
     2008.83778        14.12962         5.64205
     2008.84052         2.81302         5.69735
     2008.84325        25.05142         5.72024
     2008.84599         9.70583         5.58579
     2008.84873         5.58023         5.69258
     2008.85147        24.20464         5.81464
     2008.85420        -5.37596         5.78508
     2008.85694        14.42344         5.77554
     2008.85968         2.65185         5.74026
     2008.86242         3.27025         5.71452
     2008.86516        11.70166         5.73454
     2008.86812         6.07034         6.38485
     2008.87063        -2.08854         5.81750
     2008.87337        -1.52513         5.66779
     2008.87611        -3.72273         5.64967
     2008.87885         0.71867         5.66207
     2008.88158         0.68308         5.81464
     2008.88432        -7.68552         5.65540
     2008.88706        -1.89511         5.87948
     2008.88980        -3.11671         5.88996
     2008.89253         0.00569         5.76124
     2008.89527        -3.77490         5.77459
     2008.89801         1.49650         5.73359
     2008.90075        -8.56610         5.67161
     2008.90349        -6.79169         5.56958
     2008.90622        -2.68729         5.70879
     2008.90896         3.68512         5.66016
     2008.91170        -3.30748         5.71547
     2008.91444        -0.76108         5.69544
     2008.91718        -0.68967         5.78126
     2008.91991         0.89873         5.78794
     2008.92265        -1.10187         5.69258
     2008.92539        -5.04146         6.08067
     2008.92813        -2.74506         5.76791
     2008.93085       -14.75367         5.79080
     2008.93360        -4.01025         5.83371
     2008.93634        -3.07885         5.78698
     2008.93908        -8.61944         5.70403
     2008.94182       -12.39204         6.15981
     2008.94455       -16.13463         5.73073
     2008.94729       -12.03923         5.81464
     2008.95003         2.09217         5.60486
     2008.95277        -4.20442         5.72405
     2008.95551        -7.06602         5.54765
     2008.95824       -11.50662         5.46660
     2008.96098        -7.08221         5.75266
     2008.96372        -8.55281         5.54193
     2008.96646        -7.92340         5.61344
     2008.96919       -13.37500         5.57053
     2008.97193         0.74540         5.51046
     2008.97467       -14.37019         5.78317
     2008.97741       -17.48379         5.66302
     2008.98927       -11.87504        10.32865
     2008.99110         3.80623         5.63537
     2008.99384        -4.46537         5.69163
     2008.99657        -8.03096         5.52476
     2008.99931        -9.68856         5.79557
     2009.00479         2.74025         5.60963
     2009.00752        -3.06635         5.69735
     2009.01026        -4.92194         5.67256
     2009.01300         4.27946         5.72214
     2009.01574         4.90886         5.70307
     2009.01848        15.61527         5.73931
     2009.02121         9.56067         6.06541
     2009.02395       -12.68693         5.85945
     2009.02669       -13.90252         5.53811
     2009.02943       -10.00812         5.61153
     2009.03216       -15.97571         5.91571
     2009.03490       -18.69631         5.98341
     2009.03764       -11.41791         6.14933
     2009.04038       -13.86350         5.55909
     2009.04312       -13.25710         5.58865
     2009.04585       -14.74869         5.63346
     2009.04859       -13.91929         5.61821
     2009.05133       -14.25989         5.65349
     2009.05407       -16.57748         5.62584
     2009.05681       -10.16208         5.54574
     2009.05954        -6.62768         5.65635
     2009.06228       -11.26927         5.64491
     2009.06502        -6.57687         5.77077
     2009.06770       -11.01654         5.80701
     2009.07049       -16.81806         5.76028
     2009.07323        -7.21866         5.67065
     2009.07597        -9.88225         5.83180
     2009.07871        -7.29385         5.56862
     2009.08145        -9.44345         5.89092
     2009.08418        -7.88504         5.65635
     2009.08692        -9.80564         5.61058
     2009.08966        -8.23523         5.71261
     2009.09240       -11.50083         5.72691
     2009.09514        -8.14243         5.72500
     2009.09787        -9.39202         5.66588
     2009.10061        -5.75662         5.63919
     2009.10329       -10.23229         6.04253
     2009.10609        -4.77181         5.89950
     2009.10882        -0.76941         5.66016
     2009.11156        -7.39400         5.64109
     2009.11430       -15.55960         6.09879
     2009.11704       -11.93520         5.72024
     2009.11943       -10.34822         6.81108
     2009.12251        -2.22539         5.87948
     2009.12525        -2.86798         5.60486
     2009.12799        -5.91158         5.64014
     2009.13073        -7.67418         5.66112
     2009.13347       -10.03877         5.59056
     2009.13620        -9.15637         5.61725
     2009.13894        -5.35197         5.63156
     2009.14168        -7.00256         5.66875
     2009.14442        -1.20916         5.73835
     2009.14715       -15.39775         5.72024
     2009.14989        -3.74435         5.71642
     2009.15263        -7.48595         5.73263
     2009.15537       -11.71654         5.71547
     2009.15811       -18.45114         5.59818
     2009.16084       -13.35974         5.66398
     2009.16358        -6.14133         5.68114
     2009.16632        -0.40293         5.80605
     2009.16906        -4.64852         5.74503
     2009.17180        -6.65012         5.65826
     2009.17453       -10.86872         5.63346
     2009.17727        -4.49031         5.87662
     2009.18001        -9.48191         5.74026
     2009.18275        -5.97151         5.59342
     2009.18548        -6.59110         5.74789
     2009.18822       -12.41770         5.51237
     2009.19096        -9.41629         5.65540
     2009.19370       -10.49589         5.59151
     2009.19644        -0.22949         5.62107
     2009.19917         2.00292         5.62298
     2009.20191         6.61332         5.70975
     2009.20459        -7.91335         5.76410
     2009.20739        -5.44187         6.70619
     2009.21013        -7.45247         5.57911
     2009.21286        -3.74206         5.55909
     2009.21554        -1.95773         6.12072
     2009.21834       -13.09826         5.66207
     2009.22108        -3.08785         5.84992
     2009.22381        -3.56545         5.90331
     2009.22650        -8.05812         5.92048
     2009.22929         2.64136         5.77936
     2009.23203        -5.50424         6.14933
     2009.23471        -9.23590         6.02251
     2009.23745         3.19750         6.29331
     2009.24024         3.05897         5.75456
     2009.24298        -0.76662         5.66302
     2009.24572        -4.02822         5.75361
     2009.24846         0.28119         5.68591
     2009.25119        -1.13141         5.75552
     2009.25393        -1.42101         5.85182
     2009.25667        -5.72860         5.66970
     2009.25941        -2.48820         5.64014
     2009.26214        -2.60880         5.65540
     2009.26488        -4.58239         5.65826
     2009.26762        -5.48599         5.68782
     2009.27036         1.52642         5.76601
     2009.27310        -4.86418         5.73454
     2009.27583        -7.58478         5.72500
     2009.27857        -7.04137         5.90808
     2009.28131        -6.82597         5.79652
     2009.28405       -11.89356         5.72310
     2009.28679        -1.55716         5.70117
     2009.28952        -7.33676         5.76219
     2009.29226        -9.74235         5.94432
     2009.29500        -6.95695         5.72882
     2009.29774       -11.75655         5.76887
     2009.30047        -8.62714         5.78698
     2009.30321        -0.87074         5.76601
     2009.30595        -3.86433         6.02727
     2009.30869         1.41607         5.85087
     2009.31143        -6.72653         5.70212
     2009.31416        -6.96612         5.66779
     2009.31690        -9.37772         5.74121
     2009.31964        -3.64132         5.72977
     2009.32238        -1.57591         5.77363
     2009.32513        -2.30649         5.96815
     2009.32785        -8.05710         5.98818
     2009.33059        -3.06470         5.81368
     2009.33333         3.96370         6.02727
     2009.33607        -7.71589         5.72214
     2009.33880         3.64851         5.97769
     2009.34154        -5.94209         5.87662
     2009.34428        -4.91068         5.96339
     2009.34702        -7.98328         5.94813
     2009.34976        -8.51587         5.91094
     2009.35249        -6.40647         5.67637
     2009.35523       -12.13107         5.73931
     2009.35797        -7.79566         5.73549
     2009.36071         6.03574         5.89950
     2009.36344        -4.67986         5.70403
     2009.36618         5.97655         5.86136
     2009.36892        -3.47205         5.83752
     2009.37166        -4.67764         6.00439
     2009.37445       -13.43217         6.41917
     2009.37713       -13.54484         5.91571
     2009.37987        -1.02943         6.03681
     2009.38261        -4.69003         5.70117
     2009.38535        -7.13362         5.84133
     2009.38809        -8.79122         5.66112
     2009.39082       -11.05482         5.70689
     2009.39356        -6.70141         6.33812
     2009.39630        -7.52801         5.92048
     2009.39904        -8.34861         5.75838
     2009.40177        -4.32320         5.83180
     2009.40451         3.42420         6.03395
     2009.40725         3.29361         6.18365
     2009.40999        -3.78199         6.08067
     2009.41273        -4.82259         5.70879
     2009.41546        -5.25018         5.67637
     2009.41820        -5.66078         5.64491
     2009.42094        -6.39538         5.78222
     2009.42368        -0.09097         5.83371
     2009.42642        -4.53657         5.61916
     2009.42915        -2.27016         5.76696
     2009.43189        -4.56576         5.64491
     2009.43463        -3.83136         5.67161
     2009.43737         1.73405         5.66970
     2009.44010       -11.13255         5.61439
     2009.44284        -3.59015         5.67828
     2009.44558        -2.27674         5.67828
     2009.44832        -2.58834         5.62774
     2009.45106        -3.84193         5.66684
     2009.45379        -3.43753         5.68114
     2009.45653        -3.69213         5.62298
     2009.45927        -7.47372         5.65635
     2009.46201        -2.40532         5.65826
     2009.46475         3.71609         5.77363
     2009.46748        -3.61551         5.85087
     2009.47022        -4.47211         5.70498
     2009.47296        -2.94170         5.69258
     2009.47570        -5.97030         5.76982
     2009.47843         2.88510         5.72214
     2009.48117        -4.67249         5.81368
     2009.48391        -2.67709         5.72691
     2009.48665        -5.04968         6.35243
     2009.48939       -10.05728         5.91094
     2009.49212         2.70912         5.85373
     2009.49486         3.92253         5.80891
     2009.49760        -2.44307         5.71356
     2009.50034        -3.71167         5.78508
     2009.50308         0.91974         5.73073
     2009.50581        -1.24086         5.97864
     2009.50855        -1.10445         5.81940
     2009.51135         2.39602         6.02632
     2009.51403         3.60435         8.33387
     2009.51676        -1.60124         5.71833
     2009.51950         1.48116         5.67923
     2009.52224        -7.40144         5.70212
     2009.52498        -0.25903         5.76410
     2009.52772         3.46637         5.98532
     2009.53045        -9.83922         5.86708
     2009.53319        -3.04582         5.92525
     2009.53593        -0.74142         5.82322
     2009.53867        -0.76101         5.74694
     2009.54141         2.16339         6.02727
     2009.54414        -4.59620         5.87852
     2009.54688        -2.97880         5.81368
     2009.54962        -2.58140         5.74121
     2009.55236        -2.08699         5.78222
     2009.55509         5.01941         5.72500
     2009.55783         2.27881         5.77268
     2009.56057         3.46522         6.05397
     2009.56331        -0.55938         5.93669
     2009.56605         0.32503         6.04062
     2009.56878        -0.12357         5.74789
     2009.57152         5.71483         5.76028
     2009.57426        -0.09276         5.81940
     2009.57700         5.37764         6.03490
     2009.57974         5.18304         5.84229
     2009.58247         4.33345         5.81654
     2009.58521         0.99485         5.91666
     2009.58795         0.54626         5.97483
     2009.59069         1.22666         5.79557
     2009.59342         0.29906         5.98913
     2009.59616         3.09047         5.92429
     2009.59890        10.11787         5.84610
     2009.60164        -4.97573         5.89855
     2009.60438         1.10668         5.74503
     2009.60711         0.11408         5.82703
     2009.60985         5.47549         5.78222
     2009.61259         6.71189         5.83847
     2009.61533        -0.06271         5.74694
     2009.61807         3.79570         5.71261
     2009.62080         0.38710         6.14933
     2009.62360        -2.89242         6.05969
     2009.62628         5.40891         5.90331
     2009.62902         7.57331         6.02155
     2009.63175         7.07572         6.27519
     2009.63449        -4.13488         6.45350
     2009.63723         1.97952         5.99962
     2009.63997        -1.47207         5.84133
     2009.64271         3.32533         6.38008
     2009.64544         1.25574         5.85278
     2009.64818         2.59414         6.33526
     2009.65092         0.35754         6.06923
     2009.65366         0.78595         5.85754
     2009.65639         0.47135         5.73359
     2009.65913         1.00675         5.91571
     2009.66187         8.70916         5.77173
     2009.66461         3.12956         5.68686
     2009.66735         1.07697         6.87496
     2009.67008         5.22737         5.83752
     2009.67282         5.71177         6.21131
     2009.67550         2.15811         5.85278
     2009.67830        -7.93642         6.62228
     2009.68104         4.94298         5.99771
     2009.68377        -8.20761         5.81273
     2009.68634         7.85458         6.57651
     2009.69199        -3.12440        10.26954
     2009.69472         2.06500         5.78603
     2009.69746        -0.71559         5.83561
     2009.70020         7.76981         5.80987
     2009.70294         5.17521         5.94146
     2009.70568         7.60762         5.80701
     2009.70841         4.78902         5.96625
     2009.71115         2.39243         5.79938
     2009.71389         1.90683         6.00153
     2009.71663         4.75823         5.91762
     2009.71937         1.94164         5.85564
     2009.72210        -3.79296         5.72500
     2009.72484         0.25945         5.77936
     2009.72758        -0.68215         5.86041
     2009.73032         2.22025         5.99867
     2009.73305        -0.88134         5.89569
     2009.73579         5.77906         6.28282
     2009.73853         6.86246         5.69354
     2009.74127         8.07687         5.80415
     2009.74401        20.64127         5.97483
     2009.74669         3.40160         6.12453
     2009.74960         0.72622         5.97483
     2009.75222        -4.15752         5.74789
     2009.75496         4.23289         5.68877
     2009.75770         4.49829         5.66875
     2009.76043         4.31869         5.78603
     2009.76317         5.87510         5.83371
     2009.76591         0.91250         5.71642
     2009.76865         2.19591         5.75933
     2009.77138         5.42831         5.79652
     2009.77412         2.76471         6.14742
     2009.77686         1.87812         5.83085
     2009.77960         4.55652         5.79080
     2009.78234         9.85192         5.77936
     2009.78507        12.84033         5.90141
     2009.78781         3.63773         5.99485
     2009.79055        -7.20986         6.73956
     2009.79329        16.80454         6.31047
     2009.79603         4.47794         6.28663
     2009.79865         2.26221         6.34766
     2009.80150        -3.37625        12.29579
     2009.80447         6.88844        10.00445
     2009.80595        18.65428        13.45910
     2009.80971         7.63096         8.14697
     2009.81245        -1.29563         7.92671
     2009.81821        21.42753         7.70167
     2009.82061         4.15151         7.92003
     2009.82340         8.49898         7.49094
     2009.82614        10.20639         6.41441
     2009.82882        -1.16228         7.17914
     2009.83162        -0.79181         7.36794
     2009.83436        -0.14940         7.21251
     2009.83709        -1.54100         6.96460
     2009.83989        -3.40352         7.78845
     2009.84245         7.24367         6.98176
     2009.84525        15.06414         7.80942
     2009.84804        27.05562         6.73003
     2009.85078        15.05502         6.01965
     2009.85352         8.76742         5.92811
     2009.85626        -4.49117         5.94718
     2009.85900        -1.14777         5.99867
     2009.86139        -1.81179         7.26019
     2009.86441         4.47397         9.78705
     2009.86692        19.28909        11.41663
     2009.87006         1.42699        15.21169
     2009.87286       -25.28454        18.49756
     2009.87542        19.22965        11.79423
     2009.87805        18.54492        12.49603
     2009.93679       -17.53806        14.06936
     2009.93839        -5.81906         5.84992
     2009.94113        -7.25766         5.72500
     2009.94387        -2.39825         5.80701
     2009.94661        -0.00885         5.80129
     2009.94935        -5.89544         5.67351
     2009.95208        -4.50604         5.71547
     2009.95482       -15.92064         5.94336
     2009.95756         5.60477         5.99867
     2009.96030        -3.21883         5.77554
     2009.96303       -11.77842         5.76028
     2009.96577        -6.09102         5.94336
     2009.96851        -0.71362         5.96815
     2009.97125         7.71779         5.99295
     2009.97399         6.88719         5.94718
     2009.97672        -7.23741         5.68877
     2009.97946       -13.17900         5.67828
     2009.98220       -11.50560         5.68019
     2009.98494        -1.78719         5.69831
     2009.98767        -8.33079         5.71261
     2009.99041        -3.68739         5.62679
     2009.99315        -5.34798         5.75933
     2009.99589        -7.58258         5.79843
     2009.99863        -9.74818         5.89473
     2010.00410        -9.56337         5.72119
     2010.00684       -11.55496         5.80796
     2010.00958        -8.13956         5.83085
     2010.01232       -12.00216         5.85945
     2010.01505       -12.62875         5.75170
     2010.01779       -13.58335         5.86803
     2010.02053       -10.25895         6.03586
     2010.02287        -3.77004         7.13242
     2010.10266        -1.80883         5.68305
     2010.10540        -4.85743         5.72119
     2010.10814        -1.13702         5.82989
     2010.11088        -5.02362         5.76601
     2010.11362        -7.68322         5.56290
     2010.11635         3.81119         5.82608
     2010.11909        -2.64341         5.55241
     2010.12183         0.02599         5.71165
     2010.12457        -6.07460         5.67733
     2010.12731         2.09980         5.86422
     2010.13004        -6.60979         5.75933
     2010.13278        -4.07839         5.62584
     2010.13552        -5.73199         5.62012
     2010.13826        -6.69658         5.62393
     2010.14099       -10.89118         5.56481
     2010.14373        -6.23577         5.74026
     2010.14647         1.62463         5.98055
     2010.14921         0.52503         5.77363
     2010.15195        -8.61356         5.63537
     2010.15468        -4.44516         5.64967
     2010.15742        -3.58776         5.61249
     2010.16016        -1.25135         5.61630
     2010.16290        -0.45595         5.73931
     2010.16564        -2.16154         5.76219
     2010.16837        -1.51014         5.72405
     2010.17111        -4.88074         5.62965
     2010.17385        -2.22933         5.67351
     2010.17659        -3.80793         5.60391
     2010.17932         1.63947         5.57911
     2010.18206         2.78888         5.58483
     2010.18480        -2.49672         5.61058
     2010.18754        -5.11131         5.59151
     2010.19028         6.42209         5.68305
     2010.19301        11.59649         5.76887
     2010.19575        -3.35910         5.57053
     2010.19849        -2.53470         5.62012
     2010.20123        -2.18830         5.68209
     2010.20670       -11.68549         5.84515
     2010.20944        -5.91808         5.57435
     2010.21218         0.09432         5.58293
     2010.21492        -0.88728         5.60677
     2010.21765        -3.26687         5.64777
     2010.22039        -2.33547         5.59914
     2010.22313        -7.73606         5.53334
     2010.22587         3.94534         5.76791
     2010.22861         2.61274         5.76028
     2010.23134        -3.65185         5.69258
     2010.23408        -5.67445         5.64491
     2010.23956         8.08436         5.84324
     2010.24230         3.53576         5.87471
     2010.24503        -7.05383         5.84515
     2010.24777        -2.21843         5.82131
     2010.25051        -2.12103         6.00630
     2010.25325         6.39238         5.69354
     2010.25598         5.33878         5.67447
     2010.25872         7.38718         5.67256
     2010.26146        -3.04941         5.87280
     2010.26420        -2.38401         5.86422
     2010.26694         1.02840         5.77173
     2010.26967         0.27080         5.84420
     2010.27241        -1.16880         5.72119
     2010.27515        -1.97239         5.74694
     2010.27789        -6.30399         5.67733
     2010.28062         0.12741         5.52572
     2010.28336        -2.07218         5.70403
     2010.28610        -4.36378         5.77363
     2010.28884        -0.53937         5.65540
     2010.29158        -5.10097         5.79270
     2010.29431        -1.62957         5.67351
     2010.29705        -2.07016         5.74217
     2010.29979         4.92924         5.82226
     2010.30253        10.63765         5.79557
     2010.30527         3.45005         5.83752
     2010.30800         3.07345         5.62679
     2010.31074        -0.10314         5.67733
     2010.31348         2.52726         5.67351
     2010.31622         3.63666         5.74980
     2010.31895        12.02507         5.94146
     2010.32169         4.97647         5.61058
     2010.32443         2.93688         5.72024
     2010.32717         2.48428         5.67923
     2010.32991         3.68368         5.73454
     2010.33264         4.49909         5.62298
     2010.33538         5.63249         5.75647
     2010.33812        11.19689         5.76315
     2010.34086         1.20130         5.63823
     2010.34360        -4.10130         5.63251
     2010.34633        -0.03289         5.63919
     2010.34907        -5.33949         5.64586
     2010.35181        -5.74309         5.59628
     2010.35455         2.11532         5.61153
     2010.35728        -4.15428         5.62012
     2010.36002         2.50412         5.77173
     2010.36276         0.23753         5.70498
     2010.36550         1.47093         5.90999
     2010.36824        -2.08466         5.81178
     2010.37097        -3.13426         5.69449
     2010.37371         1.96914         5.64109
     2010.37645         2.91555         5.63919
     2010.37919        -1.58005         5.94050
     2010.38193        -1.22565         5.87471
     2010.38466        -2.85424         5.73835
     2010.38740        -0.84284         5.71642
     2010.39014        -1.80243         5.64014
     2010.39288        -3.03203         5.55623
     2010.39561        -9.02363         5.65158
     2010.39835         3.93578         5.52953
     2010.40109         8.55518         5.62679
     2010.40383         5.26459         5.54193
     2010.40657         5.62799         5.54288
     2010.40930         3.48939         5.60295
     2010.41204        -1.46220         5.55909
     2010.41478         2.19120         5.59342
     2010.41752         5.32660         5.64681
     2010.42026         3.76601         5.56576
     2010.42299        13.17141         5.56290
     2010.42573        -4.40618         5.63060
     2010.42847        -9.78978         5.62774
     2010.43121        -9.27638         5.55241
     2010.43394        -6.77297         5.49330
     2010.43668         6.17043         5.62774
     2010.43942         6.01183         5.64395
     2010.44216        -4.63076         5.53907
     2010.44490        -4.92936         5.54765
     2010.44763        -3.68395         5.56767
     2010.45037        -4.49555         5.51999
     2010.45311         3.15685         5.57816
     2010.45585        -0.95374         5.68400
     2010.45859         0.77566         5.72786
     2010.46132        -6.74594         5.69735
     2010.46406        -5.07953         5.59056
     2010.46680         0.85787         5.57053
     2010.46954        -3.59272         5.68877
     2010.47227        -4.32132         5.57911
     2010.47501        -1.13092         5.51237
     2010.47775        -4.57551         5.77363
     2010.48049        -1.67511         5.76791
     2010.48323        -0.13470         5.60200
     2010.48596         7.08070         5.65349
     2010.48870         5.73310         5.55051
     2010.49144         3.61451         5.58293
     2010.49418        -2.91209         5.48281
     2010.49692         0.01831         5.44943
     2010.49965         1.69572         5.45992
     2010.50239         4.31312         5.45706
     2010.50513        -0.88447         5.47136
     2010.50787        -4.36107         5.47041
     2010.51060        -1.59067         5.46564
     2010.51334         4.61474         5.54860
     2010.51608         0.60014         5.55146
     2010.51882         6.95554         5.60581
     2010.52156         6.80495         5.65063
     2010.52429         7.02935         5.68496
     2010.52703         3.33476         5.68877
     2010.52977         1.80616         5.59056
     2010.53251         3.01556         5.57244
     2010.53525         6.41197         5.60486
     2010.53798         1.82437         5.72214
     2010.54072         3.96777         5.64491
     2010.54346         1.05918         5.65444
     2010.54620         6.38858         5.61058
     2010.54893         2.29599         5.65063
     2010.55167        -0.02061         5.59723
     2010.55441         9.81779         5.70784
     2010.55715         2.31420         5.59246
     2010.55989        -0.24340         5.55909
     2010.56262        -0.84399         5.72024
     2010.56536        -0.51559         5.50855
     2010.56810         3.34781         5.62393
     2010.57084         3.58322         5.58865
     2010.57357         1.60462         5.83847
     2010.57631         2.42102         5.72977
     2010.57905         6.31343         5.48471
     2010.58179         3.58383         5.58579
     2010.58453        -2.79576         5.61821
     2010.58726        -1.23436         5.74312
     2010.59000        12.29104         5.78603
     2010.59274         2.33445         5.66302
     2010.59548        11.94285         5.77268
     2010.59822         8.30525         5.57625
     2010.60095         8.43166         5.68877
     2010.60369         3.51306         5.58007
     2010.60643         2.38547         5.57721
     2010.60917         0.45187         5.62488
     2010.61190         6.13127         5.56195
     2010.61464        -0.12432         5.58960
     2010.61738        -1.00892         5.63442
     2010.62012         6.52848         5.58007
     2010.62286        -2.37011         5.64586
     2010.62559         8.67129         5.57053
     2010.62833         5.55670         5.63346
     2010.63107         5.96010         5.89187
     2010.63381         7.99450         5.60295
     2010.63655        12.42591         5.66970
     2010.63928         8.15131         5.68400
     2010.64202         3.50371         5.65826
     2010.64476        -0.58088         5.68877
     2010.64750         3.96552         5.66112
     2010.65023         2.97793         5.87852
     2010.65297         5.09433         5.80129
     2010.65571         2.98373         5.54383
     2010.65845         8.23114         5.57435
     2010.66119        -1.92946         5.63919
     2010.66392        13.05295         5.78031
     2010.66666         7.78235         5.58960
     2010.66940         1.57575         5.60200
     2010.67214         8.71716         5.69449
     2010.67488         2.39456         5.53144
     2010.67761         9.86696         5.55718
     2010.68035        15.65837         5.91094
     2010.68309        13.25677         5.60295
     2010.68583         7.86618         5.53716
     2010.68856        -0.74042         5.52572
     2010.69130         6.48998         5.49520
     2010.69404         5.29639         5.69163
     2010.69678        -4.33421         5.48662
     2010.69952         1.58019         5.51427
     2010.70225         3.86860         5.55241
     2010.70499         7.04200         5.60486
     2010.70773        16.23541         5.74503
     2010.71047         7.73681         5.57149
     2010.71321         7.12221         5.70593
     2010.71594        11.82462         5.76982
     2010.71868        11.74402         5.70021
     2010.72142         9.44242         5.73359
     2010.72416         3.91383         5.71452
     2010.72689         3.96323         5.74789
     2010.72963        -1.88136         5.66493
     2010.73237         5.45504         5.61058
     2010.73511         7.52544         5.73931
     2010.73785         7.23885         5.76982
     2010.74058         5.65025         5.76696
     2010.74332        -1.47834         5.50378
     2010.74606         7.41706         5.63823
     2010.74880         2.55846         5.67161
     2010.75154        12.74987         5.54669
     2010.75416         7.19013         5.90713
     2010.75701         5.28767         5.73073
     2010.75975         0.66608         5.53811
     2010.76249         4.28548         5.43990
     2010.76522        10.96289         5.61249
     2010.76796         8.98729         5.83943
     2010.77070        -8.66231         6.06637
     2010.77344         8.35510         6.03204
     2010.77618        -0.67450         5.56100
     2010.77893        -1.11507         5.50188
     2010.78165         6.11731         5.51332
     2010.78439         8.75471         5.74598
     2010.78713         8.10212         5.68209
     2010.78987         6.59752         5.51141
     2010.79260         6.18192         5.46850
     2010.79534         2.40333         5.42559
     2010.79808         7.60573         5.48471
     2010.80082         5.04013         5.53525
     2010.80355        10.25554         5.56862
     2010.80629        13.76594         5.70021
     2010.80903         6.37735         5.53334
     2010.81177        17.77975         5.70975
     2010.81451        12.90815         5.55241
     2010.81724         5.68756         5.55528
     2010.81998         8.27496         5.55146
     2010.82272         5.79237         5.52762
     2010.82546         3.29877         5.42750
     2010.82820         2.05317         5.52762
     2010.83093        10.77958         5.79175
     2010.83367         3.20398         6.10546
     2010.83641        -0.31062         5.67733
     2010.83915        -0.00721         5.46278
     2010.84188         3.79819         5.64586
     2010.84462         5.87060         5.54574
     2010.84736        10.65500         5.61344
     2010.85010         2.11740         5.76124
     2010.85284        11.32981         5.50951
     2010.85557         5.74621         5.55623
     2010.85831         2.03161         5.55623
     2010.86105        -5.28098         5.55337
     2010.86379        -3.27658         5.56290
     2010.86653        -0.70617         5.60200
     2010.86926         3.70123         5.52381
     2010.87200         2.96963         5.49711
     2010.87474         4.40504         5.70689
     2010.87748         2.51544         5.75552
     2010.88021         0.71584         5.58293
     2010.88295        -5.04475         5.67828
     2010.88569         5.00665         5.53525
     2010.88843        -0.06294         5.71261
     2010.89117         2.58546         5.74598
     2010.89390         1.80986         5.35122
     2010.89664         0.41727         5.32547
     2010.89938         2.49067         5.39604
     2010.90212        -1.57992         5.49520
     2010.90485        -1.97752         5.43513
     2010.90759         2.78988         5.41320
     2010.91033         1.25929         5.39699
     2010.91307        -7.42031         5.44181
     2010.91581        -0.17791         5.44276
     2010.91854         0.52350         5.41797
     2010.92128        -1.89110         5.36838
     2010.92402        -5.51269         5.43322
     2010.92676         3.04371         5.54288
     2010.92950        -0.86389         5.38555
     2010.93223        -7.40748         5.50951
     2010.93497         8.85892         5.56862
     2010.93771        17.41832         5.65254
     2010.94045         9.27473         5.55528
     2010.94318         2.31913         5.44085
     2010.94866        19.44994         5.56004
     2010.95140         1.23034         5.73931
     2010.95414        -1.38925         5.44276
     2010.95687        -2.39485         5.46183
     2010.95961        -7.00245         5.43608
     2010.96235         0.76296         5.52095
     2010.96509         4.97836         5.48090
     2010.96783         6.42177         5.49330
     2010.97056        -0.41483         5.50283
     2010.97330        -4.01643         5.59246
     2010.97604        -0.97202         5.56672
     2010.97872        -8.17569         5.70975
     2010.98151        12.73978         5.51713
     2010.98425        -5.69081         5.57530
     2010.98699         0.27459         5.44753
     2010.98973         1.60500         5.56576
     2010.99247         4.40840         5.69544
     2010.99520        -2.55820         5.63251
     2010.99794        -5.75179         5.41225
     2011.00342         0.12802         5.46755
     2011.00616         3.45442         5.45229
     2011.00889         2.89882         5.53907
     2011.01163        -0.82277         5.49520
     2011.01437         2.13463         5.42083
     2011.01711         9.24003         5.70403
     2011.01984        -4.50156         5.37887
     2011.02258        -1.17516         5.57530
     2011.02532        -8.79175         5.49330
     2011.02806        -4.37935         5.68972
     2011.03080        -6.63995         5.53811
     2011.03353         3.17046         5.65063
     2011.03627         1.09386         5.59914
     2011.03901        -6.79674         5.45706
     2011.04175        11.34367         5.57816
     2011.04449        -9.56893         5.43036
     2011.04722        -1.33852         5.59056
     2011.04996        -5.88912         5.59342
     2011.05270       -11.96072         5.40652
     2011.05544        -2.90831         5.62012
     2011.05817        -2.68191         5.44181
     2011.06091        -1.65551         5.43704
     2011.06365         0.55190         5.45515
     2011.06639        -7.83770         5.44467
     2011.06913       -14.27429         5.74312
     2011.07186       -13.30689         5.45897
     2011.07460        -9.59349         5.46374
     2011.07734        -7.44408         5.43036
     2011.08008        -8.51968         5.46850
     2011.08282       -13.04227         5.40748
     2011.08555       -13.48487         5.46278
     2011.08829        -8.51447         5.52286
     2011.09103       -12.80906         5.48853
     2011.09377        -0.05666         5.52381
     2011.09650       -12.65026         5.43227
     2011.09924        -6.50885         5.49044
     2011.10198        -1.45145         5.62012
     2011.10472        -6.10904         5.44657
     2011.10746        -9.78664         5.40366
     2011.11019        -1.80324         5.48471
     2011.11293        -6.78983         5.49425
     2011.11567         3.98657         5.62965
     2011.11841        -2.79103         5.58674
     2011.12115         1.48038         5.58102
     2011.12388        -7.15422         5.72119
     2011.12662        -5.39481         5.67447
     2011.12936        -4.21441         5.49044
     2011.13210       -11.67701         5.43513
     2011.13483        -9.06960         5.42655
     2011.13757        -5.32920         5.46564
     2011.14031        -5.33080         5.49234
     2011.14305        -3.50839         5.51904
     2011.14579        -7.86499         5.52381
     2011.14852        -5.31358         5.31785
     2011.15092        -3.20961         6.18747
     2011.15400        -1.57678         5.29591
     2011.15674         0.84363         5.37506
     2011.15948        -0.97497         5.44085
     2011.16221         1.22044         5.48662
     2011.16495        -8.90816         5.62107
     2011.16769       -10.96176         5.35408
     2011.17043       -11.04935         5.40843
     2011.17316       -16.47095         5.45802
     2011.17590       -16.51555         5.48281
     2011.17864        -5.13214         5.52762
     2011.18138        -4.66674         5.36171
     2011.18412        -2.86733         5.47709
     2011.18685         1.55107         5.62298
     2011.18959       -13.23953         5.37029
     2011.19233        -4.24012         5.50855
     2011.19507         1.09128         5.45325
     2011.19780        10.00268         5.73359
     2011.20054        -9.62291         5.61630
     2011.20328         0.06149         5.61344
     2011.20602       -11.23110         5.53048
     2011.20876        -9.17370         5.44753
     2011.21149        -3.23730         5.50092
     2011.21423        -5.96289         5.41892
     2011.21697        -2.40249         5.58865
     2011.21971        -4.11709         5.57435
     2011.22245        -7.53768         5.45134
     2011.22518        -0.26428         5.44657
     2011.22792         2.18013         5.42083
     2011.23066        -5.54347         5.38841
     2011.23340        -4.36807         5.45039
     2011.23613        -3.91566         5.44181
     2011.23887        -9.14026         5.39413
     2011.24161        -0.77185         5.52286
     2011.24435         1.45755         5.42369
     2011.24709         0.75795         5.41701
     2011.24982        -0.05364         5.47041
     2011.25256         0.52676         5.41129
     2011.25530         0.35116         5.48567
     2011.25804        -0.48943         5.66875
     2011.26078        -4.44303         5.59342
     2011.26351        -6.98762         5.44562
     2011.26625       -11.58022         5.44371
     2011.26899         0.30718         5.44753
     2011.27173        -4.46341         5.63633
     2011.27446         2.07299         5.68496
     2011.27720       -10.19361         5.58960
     2011.27994        -7.19920         5.48853
     2011.28268        -0.75280         5.47232
     2011.28542        -4.44739         5.57435
     2011.28815        -6.67399         5.50378
     2011.29089         0.70941         5.41320
     2011.29363        -7.82918         5.55432
     2011.29637        -4.68678         5.49234
     2011.29911        -4.98738         5.40843
     2011.30184        -2.58697         5.62965
     2011.30458        -1.06457         5.45420
     2011.30732        -0.96616         5.41225
     2011.31006         2.62324         5.56004
     2011.31279        -1.28836         5.50855
     2011.31553         4.46005         5.52286
     2011.31827         3.69445         5.64777
     2011.32101        -3.89415         5.62298
     2011.32375       -11.67274         5.43132
     2011.32648       -13.07634         5.48281
     2011.32922        -3.89293         5.48471
     2011.33196        -2.65753         5.62679
     2011.33470        -9.10513         5.57339
     2011.33744        -6.07972         5.57244
     2011.34017         5.56968         5.76982
     2011.34291        -0.95491         5.67447
     2011.34565         5.08949         5.63442
     2011.34839        -6.39111         5.56767
     2011.35112       -11.71070         5.52667
     2011.35386        -8.74930         5.56100
     2011.35660         1.59710         5.45229
     2011.35934        -3.95049         5.49520
     2011.36208       -14.96509         5.45325
     2011.36481        -9.67168         5.66112
     2011.36755         7.62372         5.84515
     2011.37029         0.68912         5.61439
     2011.37303         1.07653         5.58483
     2011.37577        -0.94207         5.61153
     2011.37850        -6.95567         5.56004
     2011.38124       -10.47326         5.56481
     2011.38398        -4.68286         5.59818
     2011.38672        -4.49345         5.61249
     2011.38945        -6.80005         5.61153
     2011.39219        -0.55465         5.59437
     2011.39493        -5.30624         5.58293
     2011.39767        -4.71784         5.63442
     2011.40041        -4.04044         5.64491
     2011.40314        -4.28503         5.59723
     2011.40588        -6.60063         5.50092
     2011.40862        -7.61122         5.54002
     2011.41136        -4.14082         5.64586
     2011.41410        -9.99542         5.62107
     2011.41683        -7.03101         5.66398
     2011.41957        -4.46361         5.59437
     2011.42231       -11.26420         5.63728
     2011.42505        -7.41780         5.64109
     2011.42778        -6.04840         5.65158
     2011.43052        -7.05099         5.66779
     2011.43326        -8.90859         5.55528
     2011.43600        -9.28319         5.59246
     2011.43874        -8.19478         5.61439
     2011.44119       -12.20673         6.46113
     2011.44421        -3.12097         5.63156
     2011.44695        -3.99157         5.58960
     2011.44969        -2.16417         5.64681
     2011.45243       -11.91676         5.54860
     2011.45516        -8.41836         5.55337
     2011.45790        -3.93896         5.62298
     2011.46064         2.45245         5.74026
     2011.46338        -9.10315         5.63251
     2011.46611        -3.82574         5.60295
     2011.46885        -0.36934         5.63156
     2011.47159        -1.04694         5.61630
     2011.47433        -3.43253         5.66112
     2011.47707        -3.04213         5.70021
     2011.47980         0.13227         5.59437
     2011.48254        -4.71432         5.61725
     2011.48528        -4.03392         5.65349
     2011.48802         0.46649         5.69544
     2011.49076         5.84789         5.77745
     2011.49349         0.48429         5.70021
     2011.49623         0.48470         5.60104
     2011.49897        -1.02090         5.68686
     2011.50171         8.17751         5.70593
     2011.50444         2.62491         5.65921
     2011.50718         2.02831         5.79175
     2011.50992        -2.66428         5.68877
     2011.51266         5.19212         5.65635
     2011.51540        -1.04448         5.59246
     2011.51813         4.26193         5.68209
     2011.52087        10.08833         5.73168
     2011.52361         5.45174         5.65254
     2011.52635        -4.61286         5.67065
     2011.52908         1.15054         5.73359
     2011.53182         0.91795         5.68496
     2011.53456         0.31835         5.76315
     2011.53730         6.87475         5.79270
     2011.54004        -3.02184         5.75838
     2011.54277        -6.65144         5.56958
     2011.54551         1.60897         5.64586
     2011.54825         3.12037         5.61058
     2011.55099         0.65477         5.71547
     2011.55373         3.88418         5.57625
     2011.55646        -1.92942         5.60295
     2011.55806        12.47157        17.39146
     2011.56194        -0.88761         5.65826
     2011.56468         5.32579         5.61344
     2011.56741         8.12220         5.61058
     2011.57015        -3.66040         5.71261
     2011.57289       -11.85800         5.57435
     2011.57563         5.83641         5.62965
     2011.57837         4.40581         5.67828
     2011.58110        -2.03778         5.66016
     2011.58384         3.34462         5.71070
     2011.58658         3.60102         5.76791
     2011.58932        -3.49257         5.60486
     2011.59206         5.90783         5.68972
     2011.59479         6.23423         5.62202
     2011.59753        10.06864         5.61153
     2011.60027         0.50504         5.59914
     2011.60301         5.20745         5.62679
     2011.60574         3.18785         5.68591
     2011.60848         7.78125         5.95957
     2011.61122         7.04166         5.83275
     2011.61396         8.11806         5.80701
     2011.61670         5.59146         5.77554
     2011.61943         4.53387         5.65540
     2011.62217         3.78927         5.78031
     2011.62491         0.40868         5.76124
     2011.62765         0.15608         5.68782
     2011.63039        14.20348         5.83180
     2011.63312         8.64189         5.66493
     2011.63586         8.17129         5.61821
     2011.63860         2.45069         5.68591
     2011.64134         3.45310         6.08258
     2011.64407        -0.18250         5.79938
     2011.64681         7.73491         5.91380
     2011.64955        12.76131         5.97960
     2011.65229         5.74571         5.92143
     2011.65503         4.06012         5.90713
     2011.65776         2.35152         5.88520
     2011.66050         7.33092         5.85659
     2011.66324        12.04833         5.78508
     2011.66598         5.38173         5.76315
     2011.66872        -0.08286         5.97578
     2011.67145         7.76254         5.64395
     2011.67419         8.79894         5.70307
     2011.67693        13.02435         5.78031
     2011.67967         8.94475         5.64967
     2011.68240         4.72916         5.69831
     2011.68514         9.03356         5.89473
     2011.68788         8.20596         5.84324
     2011.69062        11.00037         5.71165
     2011.69336         9.46377         5.82989
     2011.69609         5.23417         5.81082
     2011.69883        12.19758         5.77363
     2011.70157         6.03298         5.80319
     2011.70431        17.33739         5.83466
     2011.70705        10.89279         5.91857
     2011.70978         9.25019         5.81178
     2011.71252         5.40160         5.96625
     2011.71526         9.10600         5.97578
     2011.71800        12.72940         5.90999
     2011.72073        12.61581         5.77745
     2011.72347         3.03821         6.00057
     2011.72621        -3.49538         5.96148
     2011.72895         3.72902         5.94241
     2011.73442        20.72383         5.86327
     2011.73716        12.37523         6.04444
     2011.73939         6.18000         7.08379
     2011.74811        15.37485         5.96053
     2011.75085        14.32225         5.95004
     2011.75359         8.95165         5.92238
     2011.75633        13.59206         5.91762
     2011.75906        24.67046         5.80319
     2011.76180        11.48387         5.83466
     2011.76454        12.08627         5.85754
     2011.76728        12.93967         5.84229
     2011.77002         7.56208         5.85373
     2011.77275         9.51048         5.93573
     2011.77549        14.51188         6.01297
     2011.77823         8.30129         5.84229
     2011.78097         4.51369         5.79747
     2011.78371         4.88210         5.77459
     2011.78644        17.14350         5.74884
     2011.78918         7.34090         5.72119
     2011.79192        10.38431         5.72500
     2011.79466         7.35771         5.79938
     2011.79739         7.87911         5.70593
     2011.80013        10.14352         5.70307
     2011.80287        15.20492         5.79938
     2011.80561        16.22033         5.79080
     2011.80835        14.31173         5.73359
     2011.81108         9.12113         5.66493
     2011.81382         4.69654         5.92048
     2011.81656         0.87494         5.68209
     2011.81930         8.13134         5.68686
     2011.82203        12.41175         5.76696
     2011.82477         9.19015         5.73549
     2011.82751         6.24556         5.73645
     2011.83025        -0.63704         5.70117
     2011.83299         4.09936         5.65921
     2011.83572         2.47177         5.68496
     2011.83846        11.88117         5.77077
     2011.84120         9.44958         5.60009
     2011.84394        10.80198         5.58197
     2011.84668         5.99538         5.62012
     2011.84941         0.02579         5.65635
     2011.85215         1.78419         5.69735
     2011.85489         2.16359         5.72024
     2011.85763         2.00000         5.78031
     2011.86036        12.24940         5.73645
     2011.86310        12.15381         5.71356
     2011.86584         8.82621         5.72119
     2011.86858        14.72161         5.65349
     2011.87132         6.45302         5.64967
     2011.87405        -5.30058         5.72596
     2011.87679        15.51882         5.83752
     2011.87953         8.67123         5.79366
     2011.88227         1.48963         5.54288
     2011.88501        -0.23096         5.65063
     2011.88774        -0.45556         5.69926
     2011.89048        18.00884         5.78412
     2011.89322        17.73725         5.74217
     2011.89596         6.17165         5.76315
     2011.89869         3.17705         5.71356
     2011.90143        -3.80354         5.67637
     2011.90417        13.08786         5.89759
     2011.90691         3.98627         5.59437
     2011.90965         6.69467         5.66016
     2011.91238         3.02707         5.71928
     2011.91512        -1.99452         5.62679
     2011.91786         3.62788         5.79652
     2011.92060        -2.84271         5.60104
     2011.92334        -1.77331         5.71642
     2011.92607        -4.39891         5.68782
     2011.92881         0.70550         5.77459
     2011.93155         2.43390         5.83466
     2011.93429         1.39830         5.71070
     2011.93702         2.84771         5.73454
     2011.93976         2.38711         5.75266
     2011.94250         1.47452         5.64205
     2011.94524         6.43892         5.67447
     2011.94798        11.17532         5.76410
     2011.95071         6.63473         5.67351
     2011.95345         6.71513         5.79175
     2011.95619         5.24753         5.82036
     2011.95893         5.14894         5.49997
     2011.96167         9.74534         5.63633
     2011.96440         3.89475         5.74026
     2011.96714         4.29615         5.84038
     2011.96988         4.77755         5.46850
     2011.97262        -0.32404         5.48948
     2011.97535        -1.26364         5.53144
     2011.97809         1.87676         5.60486
     2011.98083        -0.46783         5.78794
     2011.98357         7.47157         5.51332
     2011.98631         6.11598         5.53334
     2012.33128        -2.17215         5.66970
     2012.33401        -0.35274         5.62012
     2012.33675        -0.53834         5.45992
     2012.33949        -8.26594         5.47423
     2012.34223       -11.06353         5.44467
     2012.34496       -10.17813         5.45039
     2012.34770        -8.06772         5.57053
     2012.35044        -9.03432         5.51809
     2012.35318       -10.64092         5.55909
     2012.35592        -8.93951         5.46755
     2012.35865        -7.29111         5.49330
     2012.36139        -3.99670         5.43322
     2012.36413        -4.86730         5.49330
     2012.36687        -5.46790         5.41129
     2012.36961        -7.03849         5.57625
     2012.37234        -5.27509         5.51332
     2012.37508        -0.52169         5.59151
     2012.37782        -0.72328         5.76410
     2012.38329        -0.21747         5.61439
     2012.38603        -5.78407         5.73359
     2012.38877        -6.00467         5.62965
     2012.39151         2.98574         5.61821
     2012.39425         1.60814         5.59914
     2012.39698        -4.34346         5.59151
     2012.39972        -6.65305         5.51332
     2012.40246        -4.76765         5.56004
     2012.40520        -6.89724         5.51999
     2012.40794        -7.17884         5.47995
     2012.41067        -4.11644         5.46469
     2012.41341        -6.81703         5.51999
     2012.41615        -3.18463         5.55146
     2012.41889        -1.71723         5.62584
     2012.42162        -3.85682         5.48376
     2012.42436         1.14958         5.59723
     2012.42710        -5.67101         5.48948
     2012.42984        -6.15261         5.53334
     2012.43258         1.41479         5.58483
     2012.43531        -5.29780         5.50665
     2012.43805        -3.54440         5.48757
     2012.44079       -14.46299         5.51904
     2012.44353        -5.07459         5.57435
     2012.44604       -10.30147         6.02346
     2012.44860        -8.04528         6.79487
     2012.45111        -4.81716         7.45757
     2012.45448        -4.75598         5.51523
     2012.45687        -5.91900         6.35433
     2012.45995        -5.73717         5.63728
     2012.46269         1.12024         5.47709
     2012.46543         1.48164         5.58865
     2012.46817        -0.09696         5.70784
     2012.47091        -1.41455         5.61630
     2012.47364         4.43785         5.63537
     2012.47638         5.84425         5.69544
     2012.47912         4.72966         5.59437
     2012.48186         2.22406         5.51713
     2012.48459        -3.60453         5.61344
     2012.48733        -1.77713         5.50951
     2012.49007        -7.33173         5.51427
     2012.49281        -9.70332         5.54479
     2012.49549        -1.73899         5.69831
     2012.49811         6.44827         6.00725
     2012.50068        -0.94954         6.47448
     2012.50325         4.37465         7.24684
     2012.50576        -1.51623         7.92194
     2012.50832        -5.24103        10.20565
     2012.51083        -6.32491        15.99359
     2012.51460        -1.56123         5.69640
     2012.51711        -4.26311         6.24754
     2012.52019         0.42772         5.67828
     2012.52292        -8.90988         5.61821
     2012.52566        -2.19148         5.43036
     2012.52840         5.99193         5.41606
     2012.53114        -2.79167         5.81273
     2012.53388        -7.05427         5.57435
     2012.53650         2.57200         6.03776
     2012.53907        -2.57381         6.25612
     2012.54158        10.79631         7.04851
     2012.54414         4.66850         7.83803
     2012.54665         3.86662         9.57441
     2012.54933         2.46395        10.61948
     2012.55304         0.06356         5.54097
     2012.55561         4.04875         6.03299
     2012.55812         6.76687         6.35815
     2012.56068         5.29006         7.11716
     2012.56325        -5.51375         7.91622
     2012.56582         4.50344         9.40659
     2012.56838        -2.99036        12.99854
     2012.57215         6.49532         5.47899
     2012.57466         4.87444         6.35815
     2012.57723         0.97063         6.58604
     2012.57979         4.46082         7.55292
     2012.58236        -0.92699         8.31003
     2012.58498        11.73027         9.47715
     2012.58755         8.64946        12.65527
     2012.64887        14.91869         5.45039
     2012.65160         6.89110         5.65826
     2012.65434         9.01150         5.67161
     2012.65708        14.26990         5.72119
     2012.65970        10.40417         5.87662
     2014.45585         7.69919         5.66302
     2014.72416         7.07277         5.69163
