# ================= DQRFIT RESULTS ================
# INPUT FILE: series/SQUA.rad
# OUTPUT: LDETRENDED
# FILTER FUNCTION: f(t)
# f(t)=+line(t)
# line(t)=+P 1+P 2*t
# heav(t)=(t<0?0:1)
# TOTAL OBSERVATIONS MTOT=  172
# INITIAL TIME INTERVAL= 2017.3385 - 2006.4394 = 10.8990
# TOTAL OBSERVATIONS AFTER PREFILTER M=  172
# TIME-SPAN=    0.0000 -    0.0000 =  0.0000
# OBSERVATIONS: USED M=   172 REJECTED MTOT-M=     0 %USED=  100.0000
# N=  2 PARAMETERS
# MAXSIG= 175.00000
# MAXRES=  20.26917
# SCALE FACTOR FOR LENGTHS: SCL=  10.00000
# SCALE FACTOR FOR SIGMAS: SCLSIG=   1.00000
# CHI^2=    320.050 DOF=   170 CHI^2/DOF=   1.88265
# RMS=      7.876 SDEV=      7.895 MEAN=    0.25553
#  P #       PARAMETER +-    SIGMA %error PARAMETER NAME
# P 1 =      2494.83812 +-  392.639  15.74 YZERO                              
# P 2 =        -1.24145 +-    0.195  15.71 SLOPE                              
#       T            LDETRENDED       SIG_OBS
     2006.43943        -6.87452         7.97874
     2006.44217        -3.11212         8.08850
     2006.44491        -3.05872         7.96501
     2006.44764        -9.14233         8.16671
     2006.45038        -0.08493         8.01715
     2006.45312        -5.15553         7.98971
     2006.45586        -2.81013         8.02676
     2006.45859        -3.41473         8.09399
     2006.46133        -7.19333         8.19004
     2006.46407        -4.01293         8.39036
     2006.46681         1.17647         8.28060
     2006.46955        -8.84213         8.21199
     2006.47228        -2.84674         8.17632
     2006.47502        -6.49434         8.16671
     2006.47776        -7.03294         8.17632
     2006.48050       -13.18054         8.31764
     2006.48324       -11.92114         8.32450
     2006.48597        -1.93474         8.27374
     2006.48871        -5.15634         8.26550
     2008.61602         0.37660         7.94306
     2008.61876        -2.36600         7.83055
     2008.62150         0.08740         7.87034
     2008.62423         0.66180         7.96639
     2011.64956        -2.25543         8.00755
     2011.65230        -3.80103         8.04322
     2011.65504        -4.31863         8.17083
     2011.65777        -2.64923         7.81546
     2011.66051         0.91417         7.97187
     2011.66325         3.93057         8.03636
     2011.66599         1.27497         7.96639
     2011.66872        -5.70163         7.93071
     2011.67146        -3.47024         7.66590
     2011.67420        -3.61184         7.64257
     2011.67694         2.24356         7.74273
     2011.67968        -6.03904         7.77429
     2011.68241        -5.70364         7.87308
     2011.68515        -6.72324         7.86897
     2011.68789        -4.85684         7.82369
     2011.69063        -8.64744         7.93620
     2011.69337       -10.42704         7.84976
     2011.69610         0.07535         7.95953
     2011.69884        -4.75425         7.90327
     2011.70158        -6.97585         7.88818
     2011.70432        -0.83045         7.80448
     2011.70705        -1.31405         8.19415
     2011.70979         1.00135         7.79213
     2011.71253         0.85575         7.75783
     2011.71527        -2.97385         7.97325
     2011.71767        -0.64887         9.20813
     2012.47092        -4.57476         7.60690
     2012.47365         2.41664         7.69746
     2012.47639         3.00804         7.68922
     2012.47913         2.78744         7.56299
     2012.48187        -3.21216         7.58494
     2012.48460         9.37624         7.75097
     2012.48734        -2.81636         7.51771
     2012.49008         0.56803         7.65218
     2012.49282         1.31843         7.55750
     2012.49556        -0.19217         7.64532
     2012.49829         1.80623         7.73862
     2012.50103         9.16463         7.59180
     2012.50377        11.72403         7.82232
     2012.50651         2.97243         7.56985
     2012.50924        -1.43117         7.88543
     2012.51198        -6.52577         7.74136
     2012.51472         0.12262         7.58632
     2012.51746         1.82102         7.66178
     2012.52020        -1.04858         7.54515
     2012.52293        -5.39718         7.53555
     2012.52567         1.89722         7.68511
     2012.52841        -2.82438         7.65218
     2012.53115        -6.00398         7.76880
     2012.53389         2.37442         7.62611
     2012.53662         1.35482         7.54241
     2012.53936         5.90321         7.62611
     2012.54210         5.51461         7.59455
     2012.54484         2.53601         7.56162
     2012.54757        -2.09459         7.61101
     2012.55031         5.37981         7.63160
     2012.55305         0.44521         7.54378
     2012.55579         2.96861         7.67001
     2012.55853         4.54501         7.87994
     2012.56126         3.34741         7.71392
     2014.58180         7.44079         7.85387
     2014.58454         8.00919         7.94580
     2014.58727         2.16959         8.21611
     2014.59001         7.74999         8.03225
     2014.59275         7.57139         7.99383
     2014.59549         5.10578         8.01029
     2014.59823         1.19418         8.15848
     2014.60096         6.61458         8.14201
     2014.60370        10.55298         8.13241
     2014.60644         8.98338         8.31078
     2014.60918         7.28378         8.18729
     2014.61191        11.16918         8.47406
     2014.61465        -3.01142         8.02127
     2014.61739        11.20698         8.43976
     2014.62013         9.62137         8.12829
     2014.62287         7.26777         7.98697
     2014.62560         5.62817         7.99932
     2014.62834         7.87757         7.93620
     2014.63108        11.14897         7.99246
     2014.63382        12.30237         8.25590
     2014.63656        11.36677         7.98560
     2014.63929        20.26917         8.05557
     2014.64203        10.75757         7.98148
     2014.64477         7.28996         7.92934
     2014.64751        13.84136         8.14750
     2014.65024         9.43676         7.94032
     2014.65298        10.63616         7.88543
     2014.65572        11.56056         7.88406
     2014.65846        10.14296         7.95678
     2014.66120        12.67236         7.94169
     2014.66393        12.22176         7.91425
     2014.66667        11.48816         7.86348
     2014.66941        12.18355         7.88132
     2014.67215         6.22695         8.01578
     2014.67488         6.37935         7.89778
     2014.67762         6.27175         7.91013
     2014.68036         6.66415         7.90739
     2014.68310        -0.67845         7.96501
     2014.68584         7.87195         8.16671
     2014.68857         8.74935         8.09536
     2014.69131         5.09175         7.91836
     2014.69405         1.66014         7.91425
     2014.69679         8.24154         7.88406
     2014.69953        11.74294         7.89092
     2014.70226        10.43134         7.92660
     2014.70500         4.51074         8.51385
     2014.71595         8.47334         7.91562
     2014.71869         8.37273         7.83467
     2014.72143        14.51313         7.80173
     2014.72417         7.07853         9.40709
     2014.72690        10.53893         8.85139
     2014.72964         8.60433         9.35906
     2014.75154         6.42152         8.57971
     2014.75428         8.23692         8.50699
     2014.76250         7.32512         9.13678
     2014.78166         8.35891         8.62362
     2014.78714         9.23771        10.61041
     2014.80899        12.67384         9.01467
     2017.25668        -8.75349         7.53143
     2017.25942        -9.14309         7.58769
     2017.26215        -6.19469         7.68785
     2017.26489       -10.80229         7.59866
     2017.26763        -3.93790         7.55476
     2017.27037        -7.15650         7.54653
     2017.27311        -7.33510         7.59180
     2017.27584       -10.37770         7.57671
     2017.27858        -1.53930         7.70843
     2017.28132       -15.08590         7.66315
     2017.28406        -9.37050         7.53006
     2017.28679       -13.15710         7.50673
     2017.28953       -11.39070         7.55064
     2017.29227        -3.69031         7.73039
     2017.29501        -8.21091         7.59592
     2017.29775        -5.82551         7.61376
     2017.30048        -7.93711         7.57122
     2017.30322       -10.87271         7.56436
     2017.30596       -14.00031         7.53006
     2017.30870        -7.60691         7.59043
     2017.31144       -14.21751         7.69334
     2017.31417       -11.49111         7.58083
     2017.31691       -10.45871         7.74273
     2017.31965       -13.23132         7.80036
     2017.32239       -12.67592         7.79076
     2017.32512       -15.62352         7.55887
     2017.32786       -11.40912         7.54104
     2017.33060       -13.27272         7.51634
     2017.33334       -15.39532         7.60415
     2017.33608       -15.87892         7.50399
     2017.33848       -12.25094         8.77592
