# ================= DQRFIT RESULTS ================
# INPUT FILE: series/SUHS.rad
# OUTPUT: LDETRENDED
# FILTER FUNCTION: f(t)
# f(t)=+line(t)+annual(t)
# line(t)=+P 1+P 2*t
# annual(t)=+P 3*sin(2*pi*t+P 4)
# heav(t)=(t<0?0:1)
# TOTAL OBSERVATIONS MTOT= 2380
# INITIAL TIME INTERVAL= 2016.5910 - 2009.6491 =  6.9419
# TOTAL OBSERVATIONS AFTER PREFILTER M= 2380
# TIME-SPAN= 2016.5910 - 2009.6491 =  6.9419
# OBSERVATIONS: USED M=  2380 REJECTED MTOT-M=     0 %USED=  100.0000
# N=  4 PARAMETERS
# MAXSIG= 175.00000
# MAXRES=  18.50028
# SCALE FACTOR FOR LENGTHS: SCL=  10.00000
# SCALE FACTOR FOR SIGMAS: SCLSIG=   1.00000
# CHI^2=   1861.599 DOF=  2376 CHI^2/DOF=   0.78350
# RMS=      5.010 SDEV=      5.011 MEAN=    0.01639
#  P #       PARAMETER +-    SIGMA %error PARAMETER NAME
# P 1 =       157.98946 +-  100.687  63.73 YZERO                              
# P 2 =        -0.07733 +-    0.050  64.68 SLOPE                              
# P 3 =         3.20034 +-    0.143   4.46 ANNUAL AMPLITUDE                   
# P 4 =         2.70592 +-    0.057   2.11 ANNUAL PHASE                       
#       T            LDETRENDED       SIG_OBS
     2009.64910        -4.55903         9.57739
     2009.65092         4.50411         5.07194
     2009.65366        -4.99268         5.05601
     2009.65639        -7.18347         5.03477
     2009.65913        -7.91526         4.93651
     2009.66187        -1.38305         4.95776
     2009.66461        -4.18184         4.94891
     2009.67008        -3.16441         4.97104
     2009.67282         0.20980         5.06221
     2009.67556         1.72001         4.96927
     2009.67830         8.92822         5.13922
     2009.68104         0.22843         5.09584
     2009.68377       -12.06035         4.97723
     2009.68651        -0.48014         4.98254
     2009.68925         2.91307         4.96838
     2009.69199        -2.15872         4.95510
     2009.69472         1.09449         5.10558
     2009.69746        -6.39030         5.07725
     2009.70020         9.58192         5.08434
     2009.70294         3.85113         4.95245
     2009.70568        -0.78766         4.90288
     2009.70841       -14.16245         5.15161
     2009.71115         2.99476         5.21976
     2009.71389         3.06798         5.26756
     2009.71663         2.43419         5.03919
     2009.71937         1.00540         4.92235
     2009.72210        -6.04539         4.97104
     2009.72484        -2.91418         5.07725
     2009.72758        -3.21297         5.14010
     2009.73032         2.28525         5.17993
     2009.73305         0.93946         4.95776
     2009.73579         2.42067         5.09761
     2009.73853         2.20688         4.98077
     2009.74127         3.80309         5.10558
     2009.74401         6.70230         5.23747
     2009.74674        -2.69348         4.96484
     2009.74948        -6.38127         4.93209
     2009.75222        -7.20206         4.92855
     2009.75496        -6.73885         5.09938
     2009.75770         0.81736         5.18967
     2009.76043        -5.21943         4.95864
     2009.76317        -0.49521         4.95864
     2009.76591         0.93700         5.01529
     2009.76865        -7.34379         5.01441
     2009.77138        -2.38058         4.94891
     2009.77412        -3.93237         4.98520
     2009.77686        -2.29416         4.95422
     2009.77960         0.82906         4.95156
     2009.78234        12.07727         5.04716
     2009.78507        11.02348         5.10469
     2009.78781         3.94769         5.23216
     2009.79055        -5.09810         5.14099
     2009.79329        -7.72189         5.36227
     2009.79603       -10.61467         5.07460
     2009.79882         4.22154         5.14630
     2009.80150        -4.02525         5.07460
     2009.80424        -6.31804         5.28438
     2009.80698         3.92117         5.20560
     2009.80971        -1.15461         5.21180
     2009.81245         5.01360         5.18524
     2009.81519         7.34581         5.17462
     2009.81793         4.12302         5.17462
     2009.82067        -4.02777         5.25694
     2009.82340        -0.96856         5.02415
     2009.82614         0.36066         5.00733
     2009.82888         2.43787         5.00998
     2009.83162         9.42008         5.23747
     2009.83436        -3.23671         5.03654
     2009.83709         1.46550         5.22862
     2009.83983        -3.07229         5.18259
     2009.84257         4.83593         5.08699
     2009.84531         2.67214         5.33129
     2009.84804         3.99235         5.30297
     2009.85078         7.18656         5.18967
     2009.85352         4.68677         5.12505
     2009.85626         1.57398         5.16666
     2009.85900        -8.04980         5.24366
     2009.86173        -3.48359         5.15603
     2009.86447         6.16662         5.44371
     2009.86721         3.18283         5.22419
     2009.86995        -2.33196         5.10292
     2009.87269         2.79625         5.12771
     2009.87548         2.22447         5.38263
     2009.87816        14.96968         5.44636
     2009.88090         3.71489         5.47646
     2009.88364         5.79310         5.17728
     2009.88632         7.64831         5.32687
     2009.88911         8.46852         5.25783
     2009.89185         5.46974         5.09319
     2009.89459         0.83795         5.05955
     2009.89733        -6.67684         5.02060
     2009.90006        -6.34663         5.06309
     2009.90280        -4.06942         5.06752
     2009.90554         2.49979         5.03477
     2009.90828        -5.99699         4.96838
     2009.91102        -4.33378         5.07106
     2009.91375        -1.30257         4.91881
     2009.91649        -3.28636         4.93740
     2009.91929        -2.32814         5.06398
     2009.92197        -3.46593         4.93297
     2009.92470        -6.09772         4.91881
     2009.92744        -5.90251         4.94006
     2009.93018        -1.93930         4.93209
     2009.93292        -0.01509         4.95422
     2009.93566         0.22612         5.06221
     2009.93839         0.23634         5.08788
     2009.94113        -1.12145         4.94891
     2009.94387        -2.95324         5.05601
     2009.94661        -2.24303         5.04804
     2009.94935        -1.95682         4.92147
     2009.95208        -3.46961         4.97281
     2009.95482        -2.55339         4.98608
     2009.95756        -6.35518         5.17285
     2009.96030        -6.49797         4.94360
     2009.96303        -3.97376         5.08345
     2009.96577        -8.39555         5.11709
     2009.96851       -12.12334         5.29146
     2009.97125         3.02488         5.16754
     2009.97399        -3.25891         4.97192
     2009.97672        -5.75570         4.83561
     2009.97946        -7.11149         4.85597
     2009.98220        -5.81128         4.88429
     2009.98494        -4.58007         5.21711
     2009.98767         1.46715         4.89757
     2009.99041        -3.36864         4.84977
     2009.99321         2.36057         5.17816
     2009.99589         1.78478         4.91704
     2009.99863        -6.55901         4.96484
     2010.00410        -6.96258         4.90730
     2010.00684        -6.84837         5.30474
     2010.00958        -6.36516         4.91527
     2010.01232       -12.13595         5.12063
     2010.01505        -5.02874         5.00202
     2010.01779        -3.42752         5.01087
     2010.02053        -3.98431         4.98962
     2010.02327        -7.94810         5.00202
     2010.02600         2.87111         4.97104
     2010.02874         2.89632         4.95864
     2010.03148         6.02053         5.15515
     2010.03422        -4.57925         5.00467
     2010.03696        -3.22904         5.16223
     2010.03969        -0.83883         5.15426
     2010.04243         1.62438         4.90022
     2010.04517         4.41359         4.92324
     2010.04791        12.57680         5.00998
     2010.05065        10.32702         5.02857
     2010.05338        10.04823         5.11443
     2010.05612        13.04644         5.17728
     2010.05886         7.80765         4.88341
     2010.06160        -5.31014         4.89580
     2010.06433        -1.27993         4.93563
     2010.06707        -2.69771         4.92943
     2010.06981        -3.96450         4.98874
     2010.07255        -5.04029         5.00821
     2010.07529        -0.68008         4.97989
     2010.07797        -0.02087         5.46849
     2010.08076         1.79334         4.82941
     2010.08350         3.30556         4.84977
     2010.08629         7.27277         4.96395
     2010.08898         6.76398         5.05601
     2010.09171         8.31519         4.89580
     2010.09451         7.88741         5.03831
     2010.09719         9.44961         4.98254
     2010.09993        -1.31917         4.86836
     2010.10266         6.71604         5.21534
     2010.10540         3.82625         4.97281
     2010.10814         4.83746         4.92855
     2010.11088         0.95467         5.04096
     2010.11362         3.48388         4.92058
     2010.11635         5.47710         4.94979
     2010.11909         0.68931         4.88518
     2010.12183         0.66752         4.99139
     2010.12457        10.06073         4.87632
     2010.12731         4.60194         5.36936
     2010.13010        -5.29184         4.98343
     2010.13278        -4.76463         4.94006
     2010.13552        -1.23742         4.94183
     2010.13826         1.32979         4.88429
     2010.14099         0.68000         4.80905
     2010.14373        -3.98479         5.00556
     2010.14647        -2.16757         5.05424
     2010.14921         0.49264         4.94714
     2010.15195        -2.74815         4.89934
     2010.15468         5.35706         4.83649
     2010.15748         0.01628         4.99405
     2010.16016        -1.29252         4.86216
     2010.16290        -0.93030         4.91350
     2010.16564         2.06291         4.89757
     2010.16837         5.45012         4.83738
     2010.17111         1.51633         4.80020
     2010.17385        -1.21346         4.95687
     2010.17659        -1.14125         4.86039
     2010.17932         0.93097         4.85685
     2010.18206         1.36918         4.83030
     2010.18480         1.94339         4.79312
     2010.18754        -2.29940         4.80640
     2010.19028        -0.27419         4.84711
     2010.19301        10.72102         4.92412
     2010.19575         2.19724         5.65880
     2010.19849        -0.69755         5.16134
     2010.20123        -4.95734         4.84711
     2010.20397         1.03487         5.04096
     2010.20670        -4.14792         4.99316
     2010.20944        -2.75771         4.87367
     2010.21218         0.46951         4.84888
     2010.21492        -3.19628         4.91704
     2010.21765        -1.62207         4.93829
     2010.22039         2.50114         5.12328
     2010.22313        -9.51965         4.85065
     2010.22587        -5.31143         4.96218
     2010.22861        -2.63722         4.98431
     2010.23134        -1.82201         4.95333
     2010.23408        -9.62380         4.97723
     2010.23956         0.80262         5.15692
     2010.24230         0.78584         5.58268
     2010.24503         4.06105         5.45876
     2010.24777         0.19726         5.01706
     2010.25051         3.32647         5.18967
     2010.25325         3.29068         5.13125
     2010.25598         6.66789         5.08257
     2010.25872         4.68311         5.00733
     2010.26146         0.43032         5.08611
     2010.26420        -1.44247         5.16931
     2010.26699         0.93975         5.27907
     2010.26967         1.86695         5.10292
     2010.27241        -1.06284         5.00290
     2010.27515        -0.10762         5.07283
     2010.27789         0.47559         4.98874
     2010.28062         4.51080         4.90022
     2010.28336         2.21701         5.01529
     2010.28610         1.57122         5.03565
     2010.28884         2.46843         5.06840
     2010.29158        -3.67235         4.98608
     2010.29431         1.23886         5.06398
     2010.29705        -0.18593         4.95156
     2010.29985         3.82829         5.04096
     2010.30253         4.18849         5.15426
     2010.30527         6.36870         5.02946
     2010.30800         6.81092         4.92058
     2010.31074         9.37313         6.30939
     2010.31348         1.38034         5.29589
     2010.31622         8.95355         4.90376
     2010.31895        10.32876         5.12594
     2010.32169         7.21598         4.94183
     2010.32443         2.10219         5.00910
     2010.32723         2.67140         4.97369
     2010.32991         1.72561         4.88695
     2010.33264         4.56482         4.90819
     2010.33538         7.32203         5.23304
     2010.33812         0.24425         4.86482
     2010.34086        -5.14854         4.88695
     2010.34360        -4.84233         4.80551
     2010.34639        -0.39612         5.04893
     2010.34913         1.17410         4.95864
     2010.35187        -0.62369         4.95687
     2010.35455         1.40152         4.83295
     2010.35728        -3.66727         5.80662
     2010.36002         4.68594         5.13745
     2010.36276         1.35915         4.84888
     2010.36550        -0.59964         5.09230
     2010.36824         1.22057         5.01441
     2010.37103        -2.31521         4.93297
     2010.37371         4.72600         4.93563
     2010.37645         9.85621         4.87101
     2010.37919         4.24242         5.19144
     2010.38193         2.65163         5.21622
     2010.38466         0.49984         4.96041
     2010.38746         4.58106         4.93563
     2010.39014        -0.61773         4.90996
     2010.39288        -4.77052         4.92766
     2010.39561        -2.32231         4.91262
     2010.39835         1.55290         4.83826
     2010.40109        -3.21089         5.30297
     2010.40383        -2.61967         4.80109
     2010.40657         1.48054         4.81790
     2010.40930        -0.79825         4.88960
     2010.41204         1.10796         4.85951
     2010.41478         6.17617         4.79843
     2010.41752         7.46038         4.81967
     2010.42026         2.92260         4.81879
     2010.42299         2.36981         5.09230
     2010.42573        -6.15498         4.82410
     2010.42847         2.74723         5.00556
     2010.43121        -8.03156         4.81082
     2010.43394       -10.21834         4.86482
     2010.43668        -8.34813         4.83207
     2010.43942         3.19108         4.82676
     2010.44216        -1.48471         4.82410
     2010.44490        -6.46150         5.10823
     2010.44769        -6.96728         4.87013
     2010.45037        -4.65807         4.81967
     2010.45311        -4.80286         4.83649
     2010.45585        -4.03165         4.80109
     2010.45859        -0.15144         4.90288
     2010.46132        -4.57223         4.88606
     2010.46406         0.72998         4.77011
     2010.46680        -4.64980         4.79135
     2010.46954         1.95541         4.85065
     2010.47227        -6.05438         4.80640
     2010.47501        -4.71317         4.82144
     2010.47775        -2.16096         4.96130
     2010.48049        -3.33375         4.94094
     2010.48323        -2.26653         4.85331
     2010.48596        -2.34632         4.80197
     2010.48870         0.80089         4.79932
     2010.49144         0.35210         4.79489
     2010.49418         0.02231         4.77719
     2010.49692        -1.92548         4.84180
     2010.49965         0.43374         4.77365
     2010.50239        -1.93005         4.76125
     2010.50513        -0.34184         4.78869
     2010.50787        -3.05063         4.79135
     2010.51060        -0.64242         4.98697
     2010.51334        -0.38921         4.85154
     2010.51608         0.00501         4.89403
     2010.51882        -0.69778         4.81613
     2010.52156         2.61843         4.84269
     2010.52429         4.46964         4.90642
     2010.52703         0.87585         4.85597
     2010.52977        -6.09893         5.53488
     2010.53251        -7.22372         4.79135
     2010.53525        -4.10651         4.82853
     2010.53798        -2.94230         4.96927
     2010.54072         0.89191         4.85065
     2010.54346        -5.25288         4.88960
     2010.54620         1.06834         5.55524
     2010.54893        -2.35945         4.80994
     2010.58453        -2.64570         4.84977
     2010.58726        -5.04649         4.95333
     2010.59000         1.98172         4.88783
     2010.59274         2.69893         4.83384
     2010.59548        -5.27885         4.88872
     2010.59822         4.11636         4.92678
     2010.60095         5.19657         5.44459
     2010.60369         4.27678         4.80728
     2010.60643         9.55799         4.94802
     2010.60917        -0.88180         4.82321
     2010.61190        -1.60058         4.86836
     2010.61464        -1.13337         4.90730
     2010.61738         3.94284         5.27730
     2010.62012         0.08105         4.98166
     2010.62286         2.50626         4.87367
     2010.62559         4.72648         5.01175
     2010.62833         4.69269         4.95687
     2010.63107        -1.53510         5.00998
     2010.63381        10.70811         4.97546
     2010.63655         5.77332         5.16046
     2010.63928         5.19653         4.85065
     2010.64202        -3.40825         4.87013
     2010.64476         0.20896         4.90376
     2010.64750         0.89117         4.86039
     2010.65023         6.23838         5.04185
     2010.65297         0.43059         5.06309
     2010.65571         3.22380         4.86924
     2010.65845         8.84402         4.81082
     2010.66119         7.62323         4.84888
     2010.66392         6.15444         4.90199
     2010.66666         4.51465         4.78338
     2010.66940         2.62286         4.83295
     2010.67214         4.98307         5.18347
     2010.67488        14.36229         4.86747
     2010.67761         5.39050         4.80817
     2010.68035         4.61971         4.86836
     2010.68309         9.72392         4.88429
     2010.68583        13.06913         4.86570
     2010.68856        -0.00766         4.80463
     2010.69130         3.00756         4.91793
     2010.69404         0.93977         4.90111
     2010.69678        -3.63302         4.82144
     2010.69952         5.45719         4.84357
     2010.70225        -0.73260         4.87632
     2010.70499         4.73961         4.91173
     2010.70773        10.36983         4.95245
     2010.71047         8.11104         4.82321
     2010.71321         6.49725         4.91350
     2010.71594         8.75646         5.00910
     2010.71868         7.74567         4.78692
     2010.72142         5.66988         4.97192
     2010.72416         6.13610         4.94183
     2010.72689         3.92231         5.11089
     2010.72963        -5.49748         4.86305
     2010.73237         3.99973         4.90111
     2010.73511         9.61594         4.93651
     2010.73785         8.83916         4.93474
     2010.74058         7.35437         4.90465
     2010.74332         5.35658         4.81879
     2010.74606         7.50579         4.88695
     2010.74880         7.43100         5.13922
     2010.75154         7.97121         4.85951
     2010.75427         5.30943         4.91881
     2010.75701         3.08464         5.02680
     2010.75975        -1.42615         4.85154
     2010.76249         3.47806         4.88518
     2010.76522         2.88827         4.85862
     2010.76796         7.78348         4.92855
     2010.77070         5.73570         4.86836
     2010.77344        -9.86409         5.15869
     2010.77618         1.56712         5.21976
     2010.77891        -2.95967         4.82676
     2010.78165         4.51554         4.83472
     2010.78439         3.84575         4.90642
     2010.78713        15.30997         4.93563
     2010.78987         9.14118         4.81436
     2010.79260        10.58739         5.28438
     2010.79534        -3.43840         4.82764
     2010.79808         0.45081         4.75594
     2010.80082         3.06402         4.78427
     2010.80355         5.13024         4.99405
     2010.80629        12.87745         4.82853
     2010.80903         4.30766         4.88429
     2010.81177         1.06887         5.43574
     2010.81451         6.05908         4.82144
     2010.81724         9.81729         4.88164
     2010.81998         2.40851         4.85774
     2010.82272         7.82672         4.98608
     2010.82546         9.99393         4.90553
     2010.82820         3.09114         4.91881
     2010.83093         7.08835         5.09230
     2010.83367        11.50557         5.07106
     2010.83641         1.38678         4.86482
     2010.83915         2.30199         4.81436
     2010.84188        -0.64780         4.82764
     2010.84457         5.90341         4.96750
     2010.84736        15.73662         5.00910
     2010.85010         3.43784         4.87544
     2010.85284         3.62905         4.88429
     2010.85557         2.56326         4.88783
     2010.85831         1.20647         4.88960
     2010.86105        -4.21132         4.78250
     2010.86379        -3.84511         4.84092
     2010.86653        -4.22889         4.79577
     2010.86926        -4.56868         4.93032
     2010.87200        -1.28547         4.81879
     2010.87474        -1.86526         4.93386
     2010.87748         0.38095         4.87013
     2010.88021         4.65016         4.88606
     2010.88295        -0.60762         4.91970
     2010.88569         1.11659         4.83207
     2010.88843         3.88880         5.00556
     2010.89117         5.94601         5.06221
     2010.89390         0.56522         4.83030
     2010.89664         2.48043         4.75594
     2010.89938         3.66065         4.82587
     2010.90212         5.60586         4.89757
     2010.90485        -4.74393         5.04273
     2010.90759         6.28028         4.82587
     2010.91033         7.25649         4.74178
     2010.91307        -1.25330         4.75771
     2010.91581         3.77092         4.80817
     2010.91769        10.47206         8.11334
     2010.92402         4.84455         4.79932
     2010.92676         7.69976         4.75860
     2010.92950         7.87898         4.85951
     2010.93223        -1.70281         4.86039
     2010.93497        12.14540         4.90288
     2010.93771        -1.52939         4.83384
     2010.94045        -1.13618         4.89934
     2010.94318         8.14303         4.87101
     2010.94592         1.33825         4.85597
     2010.94866         7.60546         4.91704
     2010.95140         5.60467         4.98077
     2010.95414         4.24788         4.81613
     2010.95687         1.88209         4.71434
     2010.95961         1.45430         4.84534
     2010.96235         5.22552         4.79489
     2010.96509         5.09173         4.76922
     2010.96783         3.38294         4.73204
     2010.97056         4.43515         4.75683
     2010.97330         0.72536         4.74975
     2010.97604        -3.40243         4.78073
     2010.97878         5.69679         4.95687
     2010.98151         5.05200         4.84800
     2010.98425         6.41621         4.87013
     2010.98699         3.06842         4.73116
     2010.98973         5.29763         4.87898
     2010.99247         7.66284         5.02769
     2010.99520         0.57306         4.84534
     2010.99794        -0.20173         4.79223
     2011.00342         1.18669         4.74178
     2011.00616         6.00090         4.75506
     2011.00889         6.17811         4.85154
     2011.01163        -0.02967         4.80994
     2011.01437        -0.81546         4.99759
     2011.01711         0.86075         4.85597
     2011.01984        -2.22104         4.83118
     2011.02258        -0.46983         4.75240
     2011.02532         0.85938         4.88164
     2011.02806         2.77760         5.00821
     2011.03080        -2.20819         4.81790
     2011.03353        -2.50598         4.92589
     2011.03627         3.14023         4.78869
     2011.03901         0.89644         4.83030
     2011.04175         7.26666         4.80551
     2011.04449        -3.26413         4.87013
     2011.04722        -4.08392         4.87986
     2011.04996        -4.25471         4.88075
     2011.05270        -3.99350         4.79489
     2011.05544        -4.01929         4.77542
     2011.05817        -0.51607         4.80197
     2011.06091        -1.24386         4.75152
     2011.06365        -0.68165         4.83826
     2011.06639        -5.97644         4.77011
     2011.06913        -2.83623         5.30208
     2011.07186        -6.47402         4.79932
     2011.07460        -6.53380         4.83295
     2011.08282       -10.98717         4.80640
     2011.08555       -11.20096         4.84800
     2011.08835        -5.15374         4.86924
     2011.09103        -9.79053         4.75417
     2011.09377        -8.90532         4.79046
     2011.09650        -1.93911         4.78161
     2011.09924        -5.28490         4.80817
     2011.10198        -3.60069         4.88075
     2011.10472        -4.16048         4.90288
     2011.10746        -7.59826         4.79400
     2011.11019        -2.47005         4.76656
     2011.11293        -2.87284         4.80020
     2011.11567        -3.73063         4.82587
     2011.11841        14.05058         4.99582
     2011.12115         1.90479         4.86305
     2011.12388       -11.81499         5.17374
     2011.12662         1.32022         4.87721
     2011.12936         3.07543         4.82764
     2011.13210        -1.47936         4.73735
     2011.13483        -4.80215         4.73381
     2011.13757        -3.95693         4.83561
     2011.14031        -3.44172         4.75860
     2011.14305        -4.83051         4.82144
     2011.14579        -4.67930         4.85597
     2011.14852         1.75891         4.72054
     2011.15126         4.02212         4.75771
     2011.15400         1.15334         4.80197
     2011.15674         2.01655         4.75683
     2011.15948         2.40476         4.94271
     2011.16221        -0.90003         4.78958
     2011.16495         9.38618         4.86305
     2011.16769        -7.93661         4.81348
     2011.17043        -5.28839         4.82853
     2011.17316       -14.62118         4.90111
     2011.17590        -6.55697         4.77099
     2011.17864        -2.14876         4.83472
     2011.18138        -0.79155         4.82941
     2011.18412        -4.35534         4.79489
     2011.18685        -0.56112         4.92855
     2011.18959        -3.17291         4.78338
     2011.19233        -5.20570         4.87367
     2011.19507         8.90251         4.93917
     2011.19780         1.27872         4.89137
     2011.20054         2.68493         4.92235
     2011.20328         0.33115         4.97104
     2011.20602        -8.67864         4.92589
     2011.20876        -2.71843         4.85420
     2011.21149        -9.24622         4.84800
     2011.21423        -0.31801         4.89580
     2011.21697         0.66720         4.88606
     2011.21971        -2.38658         4.89934
     2011.22245        -5.97237         4.85862
     2011.22518         2.42984         4.85774
     2011.22792         0.74805         4.84092
     2011.23066        -3.35974         4.87101
     2011.23340        -5.03052         4.84180
     2011.23613        -2.82231         4.80197
     2011.23887        -3.63510         4.79223
     2011.24161        -4.78789         4.88164
     2011.24435        -7.14268         4.80020
     2011.24709        -3.36947         4.81171
     2011.24982        -3.51825         4.86747
     2011.25256        -2.39404         4.80551
     2011.25530        -3.92183         5.13745
     2011.25804         1.84038         4.95864
     2011.26078        -9.40141         5.24455
     2011.26351         1.82880         4.76568
     2011.26625        -3.39798         4.78604
     2011.26899        -0.41277         4.79223
     2011.27173        -1.02656         4.97015
     2011.27446        -9.52935         5.09673
     2011.27720        -8.90114         4.94891
     2011.27994        -4.07393         4.82853
     2011.28268        -3.31071         4.77719
     2011.28542        -7.89650         4.76479
     2011.28815        -6.86429         4.80640
     2011.29089         0.30092         4.81702
     2011.29363        -4.46987         4.80728
     2011.29637        -5.97166         5.03742
     2011.29911        -1.91644         4.75506
     2011.30184         2.44077         4.89491
     2011.30458        -3.57702         4.77365
     2011.30732         0.90419         4.80020
     2011.31006         1.05540         4.79755
     2011.31279        -0.25039         4.82941
     2011.31553        -4.30517         5.08611
     2011.31827        -2.75996         4.83295
     2011.32101         0.92325         4.85242
     2011.32375        -7.64154         4.77542
     2011.32648        -9.87433         4.77011
     2011.32922        -8.36812         4.76302
     2011.33190        -2.49091         4.95068
     2011.33470       -11.24569         4.89580
     2011.33744        -8.32848         4.85508
     2011.34017         0.64573         5.00821
     2011.34291        -4.62806         4.83384
     2011.34565        -0.05584         4.88518
     2011.34839        -4.81763         4.86924
     2011.35112        -5.13942         5.02415
     2011.35386        -9.08921         4.84888
     2011.35660        -6.85200         4.78073
     2011.35934        -7.63679         4.79755
     2011.36208       -12.36857         4.79843
     2011.36481        -7.18336         4.90996
     2011.36755        -5.09915         4.89934
     2011.37029        -8.25894         4.87013
     2011.37303        -2.20173         4.82321
     2011.37577        -5.05952         4.84800
     2011.37850        -7.98430         4.94625
     2011.38124        -9.01709         4.93386
     2011.38381       -14.54089         5.43840
     2011.38672        -9.36067         4.80551
     2011.38945        -4.54646         4.93474
     2011.39219        -1.54925         4.91262
     2011.39493        -5.62103         5.00290
     2011.39767        -6.51182         4.89049
     2011.40041        -8.30461         5.29943
     2011.40314       -13.73940         4.91881
     2011.40588        -6.19719         4.86393
     2011.40862        -3.78598         4.87898
     2011.41136        -4.68076         4.91616
     2011.41410        -8.73755         4.88783
     2011.41683       -10.25134         5.04539
     2011.41957        -4.64513         4.87367
     2011.42231       -14.00392         4.86924
     2011.42505        -6.79071         4.90465
     2011.42778        -5.53449         4.92058
     2011.43052        -8.03228         4.89491
     2011.43326       -11.06607         4.91439
     2011.43600       -12.51086         5.47115
     2011.43874        -7.71565         4.88429
     2011.44147        -7.20343         4.90730
     2011.44695       -10.45701         4.87544
     2011.44969        -4.79080         6.03588
     2011.45243       -10.95059         5.06309
     2011.45516       -14.67138         4.88075
     2011.45790       -12.36516         5.31802
     2011.46064        -3.75495         4.92412
     2011.46338       -12.97574         4.97635
     2011.46611       -10.51353         4.94979
     2011.46885         1.07468         5.01175
     2011.47159        -7.41311         5.07637
     2011.47433        -1.50889         4.97900
     2011.47707        -5.83568         4.93386
     2011.47980        -4.41947         4.97192
     2011.48254        -3.91126         4.91881
     2011.48528        -5.46205         5.01441
     2011.48802        -7.35684         5.00379
     2011.49076        -0.09062         4.94183
     2011.49349        -7.25941         5.02769
     2011.49623        -5.29220         4.94979
     2011.49891        -9.72099         5.29412
     2011.50171        -9.87778         5.06044
     2011.50450        -5.64456         5.04008
     2011.50718        -5.53835         5.03477
     2011.50992        -3.34914         4.97900
     2011.51266        -1.94693         5.05955
     2011.51545        -7.39371         5.00910
     2011.51819         0.50450         4.99051
     2011.52093        -1.12729         5.58268
     2011.52361        -2.79708         4.98785
     2011.52635        -5.91287         4.90553
     2011.52908         3.47634         4.99582
     2011.53188        -4.18044         5.00644
     2011.53456        -7.45524         4.89757
     2011.53730        -4.49403         5.01795
     2011.54004        -1.30481         4.93474
     2011.54277        -1.25960         4.90642
     2011.54551         4.76361         5.07725
     2011.54825        -3.72618         4.91085
     2011.55099        -6.24897         4.92678
     2011.55373        -3.07475         5.01618
     2011.55646        -1.62254         4.91970
     2011.55926        -6.76133         4.94625
     2011.56200         0.54888         4.98343
     2011.56468        -1.56891         4.89934
     2011.56741        -0.93170         4.93651
     2011.57015        -7.25048         5.59153
     2011.57289        -6.79427         4.89934
     2011.57563        -2.95706         4.95687
     2011.57837         1.82415         4.92324
     2011.58110        -9.40264         4.93209
     2011.58384        -4.80443         5.17108
     2011.58658        -0.89021         5.04096
     2011.58937        -8.82800         4.98077
     2011.59211        -1.96779         4.97635
     2011.59485         1.99143         5.00379
     2011.59753        -1.77137         4.89314
     2011.60027        -0.71916         4.93474
     2011.60306         6.38606         5.66854
     2011.60574        -4.78573         5.04185
     2011.60848         4.38748         5.13302
     2011.61128         4.26870         5.27464
     2011.61396        -0.44610         4.98785
     2011.61675         8.05512         5.20560
     2011.61949        -2.65667         5.20472
     2011.62223        -0.66246         5.08699
     2011.62491        -4.52125         5.54108
     2011.62770        -1.04203         5.10381
     2011.63039         2.72417         4.95156
     2011.63312         4.63438         4.91085
     2011.63592        -3.91440         5.17993
     2011.63860         0.19681         4.97369
     2011.64134         2.89302         5.22508
     2011.64407         5.18523         5.13656
     2011.64681        -4.61956         5.45610
     2011.64955         0.59066         5.07283
     2011.65229         1.54387         5.00025
     2011.65503        -4.69492         5.00202
     2011.65776        -1.96071         5.01264
     2011.66050         7.81150         5.07460
     2011.66324         0.85771         4.99051
     2011.66598         2.56593         4.99759
     2011.66872         3.83414         5.41450
     2011.67145         6.37235         4.86747
     2011.67425         7.16756         4.99405
     2011.67693         7.04277         4.88518
     2011.67967         6.00298         4.94183
     2011.68240         0.35220         5.02680
     2011.68514         1.07141         4.95953
     2011.68788        -2.10238         5.01441
     2011.69062         6.90783         5.19321
     2011.69336         2.01104         4.99759
     2011.69609         3.76725         5.01972
     2011.69883         3.66447         4.99051
     2011.70163         0.44168         5.04716
     2011.70431         5.44089         4.95776
     2011.70705        -2.15490         5.06132
     2011.70978         1.17531         4.97281
     2011.71252        -0.95848         4.98431
     2011.71526        -2.41526         5.09850
     2011.71800         4.27595         5.14099
     2011.72073         6.58616         4.97723
     2011.72347         5.87437         4.91527
     2011.72621         6.25058         4.88252
     2011.72895         7.09679         4.97458
     2011.73169        17.45401         5.55701
     2011.73442         4.22422         4.93297
     2011.73716        12.31143         4.99316
     2011.73990         5.50764         5.27110
     2011.74264         3.73585         4.94360
     2011.74538         2.59007         5.07194
     2011.74811         6.91428         5.08788
     2011.75085        11.66149         5.14364
     2011.75359         7.01570         5.03742
     2011.75633         9.44391         5.32333
     2011.75906        11.81712         4.98962
     2011.76180        -0.75366         4.95156
     2011.76454         1.02455         5.00202
     2011.76728        -1.20024         4.95245
     2011.77002         7.26497         5.04273
     2011.77275         6.83418         5.29146
     2011.77549         2.21039         5.09230
     2011.77823        -2.26339         4.98343
     2011.78371         3.81603         4.98166
     2011.78644         6.76424         4.93829
     2011.78918         2.44945         4.91262
     2011.79192        -4.70634         4.93209
     2011.79466         0.31988         4.90376
     2011.79739         6.88509         4.93297
     2011.80287         1.93351         4.91350
     2011.80561        -2.81628         4.87101
     2011.80835        -1.03607         4.88606
     2011.81108         6.84915         4.98254
     2011.81382        -0.39364         4.88872
     2011.81656         0.93657         4.85862
     2011.82203        -1.87501         4.86747
     2011.82477         5.79820         4.97812
     2011.82751         7.08242         4.85951
     2011.83025        -2.21637         5.07017
     2011.83299        -3.91416         4.87809
     2011.83572        -4.13595         4.85951
     2011.84120         7.47447         4.93474
     2011.84394         3.49169         4.89049
     2011.84668         0.02390         4.89934
     2011.84941        -3.51089         4.82941
     2011.85215        -4.60068         5.09938
     2011.85489        -5.73047         4.93209
     2011.86036         4.80996         4.84269
     2011.86310         7.43117         4.96395
     2011.86584         4.58538         4.95864
     2011.86858         7.56159         4.85774
     2011.87132         5.65680         4.86482
     2011.87405         1.84802         4.86659
     2011.87953         7.15944         4.94448
     2011.88227         8.65765         4.86570
     2011.88501         4.52786         5.00910
     2011.88774         0.83307         4.94271
     2011.89048         7.54729         4.92147
     2011.89322         5.38250         5.00910
     2011.89869         4.07892         4.88960
     2011.90143        -3.30787         5.17374
     2011.90417        -2.24366         4.92147
     2011.90691         1.81756         4.93209
     2011.90965         5.56277         4.92324
     2011.91238         0.01098         4.98608
     2011.91786        -0.39260         4.95687
     2011.92054        -5.19739         5.00998
     2011.92607        -0.20396         4.94802
     2011.92881         2.47525         5.17551
     2011.93155         4.73646         5.02326
     2011.93702         4.71988         4.92589
     2011.93976         4.33610         4.95333
     2011.94250         0.48331         5.04096
     2011.94524         1.57452         4.96307
     2011.94798         8.00673         4.98166
     2011.95071         3.55894         4.89403
     2012.03559         4.40051         4.83649
     2012.03833         2.47172         5.15869
     2012.04106        11.80593         5.12771
     2012.04380         5.51014         5.08788
     2012.04654         6.27135         5.11532
     2012.05201         9.56578         5.21180
     2012.05475        12.06199         5.44813
     2012.05749        -1.84580         5.03565
     2012.06023         7.20741         4.96307
     2012.06297        -0.09738         5.22065
     2012.06570        -1.22916         4.88075
     2012.07118        -2.61374         4.75594
     2012.07392        -0.14553         4.79223
     2012.07666        -3.61232         4.80817
     2012.07939         6.99689         4.99316
     2012.08213         0.40611         4.78869
     2012.08487         7.15932         4.83915
     2012.09034        -0.83926         4.79312
     2012.09308         0.18495         4.77984
     2012.09582         0.76816         4.96041
     2012.09856         3.66438         4.78604
     2012.10130         5.48959         4.89757
     2012.10403         1.60080         4.82233
     2012.10951        -2.04278         5.61366
     2012.11225        -3.08657         5.17108
     2012.11498         5.62165         4.83472
     2012.11772         7.74686         4.83561
     2012.12046         6.21807         4.88341
     2012.12320         1.93028         4.81436
     2012.12867        -3.65330         4.95599
     2012.13141        -9.05508         4.95599
     2012.13415         0.77913         4.86570
     2012.13689        10.56734         4.92678
     2012.13963         7.93755         4.95864
     2012.14236         0.64576         4.94448
     2012.14784        -3.68781         4.84711
     2012.15058        -6.35960         4.93209
     2012.15331        -5.95639         4.77188
     2012.15600        -2.19118         5.01441
     2012.15828        -3.83901         7.34237
     2012.16159        -9.84275         4.95776
     2012.16700        -1.90433         4.93386
     2012.16974        -5.95512         4.79577
     2012.17248        -7.27291         4.83030
     2012.17522         0.29530         5.12948
     2012.17796        -1.83748         4.90022
     2012.18069        -4.00527         4.84800
     2012.18617        -5.52785         4.83295
     2012.18891         0.45036         4.90907
     2012.19164         1.65357         6.40676
     2012.19438        12.02179         4.97104
     2012.19712         9.42900         4.96395
     2012.19986         6.83621         4.88075
     2012.20533         5.08263         4.95510
     2012.20807         2.55884         4.89845
     2012.21081         0.81406         4.80463
     2012.21343        -3.30974         5.07725
     2012.21902         3.06569         4.80994
     2012.22450       -11.06189         4.74798
     2012.22724        -5.07767         4.82941
     2012.22997         4.12154         4.81790
     2012.23271         3.46575         4.84092
     2012.23545        11.13196         4.85420
     2012.23819         6.23717         4.80197
     2012.24366         6.89160         4.88252
     2012.24640         7.63681         4.83561
     2012.24914         2.31302         4.85154
     2012.25188        -3.95277         4.81082
     2012.25462        -8.36756         4.93474
     2012.25735        -3.72234         4.78958
     2012.26283        -5.54592         4.78869
     2012.26557        -6.45571         4.81259
     2012.26819        -4.78451         8.09387
     2012.27104        -5.11829         4.99494
     2012.27384         0.65993         4.88872
     2012.27652         1.43814         4.84003
     2012.28199         3.85756         4.81879
     2012.28473        -3.07123         4.75152
     2012.28747        -4.57302         4.79755
     2012.29021        -1.70780         4.81171
     2012.29295        -4.29459         4.91173
     2012.29568         3.26362         4.96838
     2012.30116        -5.66696         4.77630
     2012.30390        -1.83375         4.79489
     2012.30663        -4.34353         4.83472
     2012.30937        -4.30332         5.00910
     2012.31211         2.17389         4.93474
     2012.31485         2.06910         4.90730
     2012.32032        -4.38848         4.89757
     2012.32306        -2.25326         4.78250
     2012.32580        -6.94305         4.76922
     2012.32854        -8.43684         5.17728
     2012.33128         2.22637         4.91704
     2012.33401        -1.72342         4.94094
     2012.33949        -6.44599         5.11532
     2012.34217       -10.68079         6.31736
     2012.34571        -6.75651         6.99450
     2012.35135         2.53892         8.20008
     2012.35318        -3.81493         4.82941
     2012.35843        -8.32253         7.49816
     2012.36145        -7.34730         5.91284
     2012.36413        -4.92609         5.29323
     2012.36692        -1.04087         4.91970
     2012.36955        -6.67667         4.87190
     2012.37234        -6.30345         4.83738
     2012.37782        -1.72503         4.93829
     2012.38056        -4.92582         4.96750
     2012.38329        -1.78261         4.90642
     2012.38603        -5.47639         5.10912
     2012.38877        -3.16518         5.13036
     2012.39151        -0.89297         4.86924
     2012.39698        -3.82355         4.88075
     2012.39972        -2.16134         4.79666
     2012.40246       -14.14912         4.81967
     2012.40520        -4.69191         4.96750
     2012.40794        -5.26670         4.79666
     2012.41067        -5.41249         4.84269
     2012.41615        -0.38907         4.92058
     2012.41889         0.34915         4.95068
     2012.42162        -2.29464         5.24543
     2012.42442         3.81757         5.09850
     2012.42710        -3.24022         4.80728
     2012.42989        -6.68100         4.92501
     2012.43531        -3.43358         4.77188
     2012.43805        -2.66837         4.78604
     2012.44079       -11.73216         4.81790
     2012.44353       -12.12095         4.80817
     2012.44626        -2.82374         4.82056
     2012.44900        -3.03953         4.80551
     2012.45448       -11.22310         6.21822
     2012.45722        -2.58089         4.83295
     2012.45995        -1.22368         5.20029
     2012.46269         2.85653         5.09584
     2012.46543        -6.61125         4.90465
     2012.46817         0.27496         4.97900
     2012.47364         1.36438         4.88075
     2012.47638         2.91359         4.84003
     2012.47912        -3.19920         4.82764
     2012.49384         7.08194        10.03236
     2012.49555        -1.14993         4.95864
     2012.49828        -0.94871         4.82853
     2012.50102         2.06150         4.82764
     2012.50376        -0.83229         4.79489
     2012.50650        -6.89908         4.80994
     2012.51197        -0.11766         5.04804
     2012.51471        -7.18644         4.82144
     2012.51745        -4.20723         4.86128
     2012.52019        -5.21902         4.83915
     2012.52292        -0.27081         5.66500
     2012.52543        -5.39061         5.21268
     2012.52840       -12.41939         4.86924
     2012.53114        -7.18517         4.86216
     2012.53388        -6.17796         4.81790
     2012.53633        -1.65077         5.76945
     2012.53947        11.56447         5.53931
     2012.54209         6.44467         5.23835
     2012.54483         2.41888         4.86482
     2012.55030        -1.96869         4.86570
     2012.55304        -0.55448         4.80463
     2012.55584        -2.21226         4.92855
     2012.55852        -5.24406         4.78604
     2012.56125         3.78616         4.82056
     2012.56399        -0.83163         4.75860
     2012.56947        -1.54021         4.90996
     2012.57221        -1.01300         4.79755
     2012.57494         0.18921         4.90642
     2012.57768        -4.95957         4.86747
     2012.58042         0.87064         4.80728
     2012.58316       -11.23015         4.92147
     2012.58863         6.73527         4.84269
     2012.59137         3.04448         6.30320
     2012.59411         7.90970         4.91173
     2012.59685         2.15491         5.32333
     2012.59964         2.92512         5.11532
     2012.60232        -2.40767         5.22685
     2012.60780         0.14675         4.80640
     2012.61054         2.76097         4.76302
     2012.61327         1.36518         4.81613
     2012.61601         6.51739         4.84446
     2012.61875         7.81160         4.80817
     2012.62149         0.30081         4.85597
     2012.62696         3.14124         6.39791
     2012.62970         3.55645         4.90819
     2012.63244         5.20066         4.86570
     2012.63518         5.47687         4.80728
     2012.63752        -4.29795         5.70837
     2012.64065         4.92929         4.79666
     2012.64613         6.84572         4.82056
     2012.64887         5.41593         4.79135
     2012.65160         8.93114         4.89580
     2012.65434         5.50435         5.21976
     2012.65708        -3.79843         8.95335
     2012.65953         3.08475         8.43200
     2012.66256         6.92099         5.86858
     2012.66529         5.33820         4.86305
     2012.66803         2.19741         4.83738
     2012.67077         2.78262         4.81082
     2012.67351        -0.77716         4.84888
     2012.67613         3.67104         5.21445
     2012.67898         6.96026         4.87632
     2012.68446         1.28568         4.87632
     2012.68720         6.03489         4.85065
     2012.68993         7.74911         4.94094
     2012.69273         3.73932         6.85730
     2012.69541         0.32853         5.03565
     2012.69815         7.65874         4.88783
     2012.70362        -1.82084         4.93563
     2012.70636         4.44538         4.85597
     2012.70910        -1.55341         4.89314
     2012.71184         2.99380         4.80374
     2012.71457        11.26501         4.79666
     2012.71731         9.06622         5.33838
     2012.72279         4.91865         4.82233
     2012.72553         8.34486         4.81082
     2012.72826         6.61107         4.95333
     2012.73100         4.31328         4.91793
     2012.73374         6.06249         4.90642
     2012.73648         3.01370         4.91085
     2012.74195         2.73313         4.91527
     2012.74469         4.70134         4.78338
     2012.74743        10.39155         4.81879
     2012.75017         2.05676         4.81967
     2012.75290         6.84497         4.88075
     2012.75564         2.76019         4.83915
     2012.76112         4.97061         4.79046
     2012.76386         7.78982         4.82410
     2012.76659         8.59603         4.86039
     2012.76933         6.29525         4.88872
     2012.77207         7.71546         4.81702
     2012.77481         3.87267         4.79932
     2012.79397         2.95815         5.15515
     2012.79671         0.82036         5.14276
     2012.79945         9.40757         5.36139
     2012.80219         9.48479         5.87655
     2012.80492         3.24200         4.84446
     2012.80766         6.97621         5.02946
     2012.81040         5.61942         4.83384
     2012.81314         0.57963         4.89757
     2012.81587        -2.99716         4.90553
     2012.81861         0.89606         5.11974
     2012.82135         0.30127         4.85774
     2012.82409         7.98248         4.87455
     2012.82683        -1.94731         4.93563
     2012.82956         4.93190         4.95245
     2012.83230        11.99211         5.25783
     2012.83504         2.48633         4.90111
     2012.83778         4.07154         4.91616
     2012.84052         5.91975         5.00998
     2012.84257        -1.24609         7.00866
     2012.85962         2.39823         5.05867
     2012.86242        -2.13256         4.84977
     2012.86516        11.00666         4.88960
     2012.86789         2.64187         4.98343
     2012.87063         0.17008         4.84623
     2012.87337        -0.19271         4.88341
     2012.87611         0.07650         4.99405
     2012.87885         2.89971         4.80197
     2012.88158         7.40593         5.01706
     2012.88432        13.37514         4.90642
     2012.88706         4.89135         5.00290
     2012.88980         8.99656         4.98520
     2012.89253         1.13477         4.81259
     2012.89527         2.26898         4.87544
     2012.89801         2.84920         4.88429
     2012.90075         8.71541         4.91350
     2012.90349         2.44862         6.23946
     2012.90628         2.92084         4.97635
     2012.90896        11.35504         4.94183
     2012.91170         8.74125         4.90819
     2012.91444         4.84947         4.97900
     2012.91718         3.44868         4.84977
     2012.91991         5.40289         4.84800
     2012.92265         1.88510         5.02415
     2012.92539         8.45831         4.90022
     2012.92813         1.21752         4.77099
     2012.93086        -5.26226         4.91881
     2012.93360        -1.39405         4.90022
     2012.93634        -0.04184         4.77276
     2012.93908        -5.37663         4.82941
     2012.94182         0.41558         4.82410
     2012.94455        11.01679         5.20737
     2012.94729         4.32501         4.92412
     2012.95003         4.46022         4.86836
     2012.95277         4.97843         4.79223
     2012.95551         7.89964         4.78073
     2012.95824         9.65585         4.78692
     2012.96098         7.63906         4.98785
     2012.96372        -2.76672         4.87898
     2012.96646         9.12949         5.00556
     2012.96919        12.72170         4.88341
     2012.97193         7.79591         4.87101
     2012.97467        12.47312         4.80463
     2012.97740         4.88233         4.78781
     2012.98015         0.95955         4.78515
     2012.98288        -0.71324         4.75683
     2012.98562         4.52697         4.78604
     2012.98836         2.48618         5.18524
     2012.99110         1.70939         4.74798
     2012.99281         7.88053         9.67830
     2012.99657         1.79082         4.76214
     2012.99931         0.56703         4.81613
     2013.00205         2.56124         4.78161
     2013.00479         0.39245         6.09253
     2013.00752         0.96966         4.94979
     2013.01026        -1.00312         5.22242
     2013.01300         0.23509         4.78073
     2013.01574         1.23630         4.77011
     2013.01848         2.97951         4.80197
     2013.02121         6.74272         4.83118
     2013.02395        -6.19007         4.88429
     2013.02669         0.29315         4.92943
     2013.02943        -3.64064         4.84623
     2013.03216        -1.78943         5.05159
     2013.03490        -4.27822         4.80640
     2013.03764        -5.51201         4.80109
     2013.04038        -7.11380         4.78692
     2013.04312        -9.12758         4.87278
     2013.04585        -4.49437         5.06398
     2013.04859        -7.36616         4.87632
     2013.05133        -6.49295         4.77807
     2013.05367        -8.68477         5.71545
     2013.05681        -2.86153         4.78161
     2013.05954        -2.55931         4.82499
     2013.06228        -0.40010         4.94891
     2013.06502         2.53411         4.93651
     2013.06776        -0.46468         4.84003
     2013.07049         3.18853         4.86039
     2013.07323        -1.18925         4.79666
     2013.07597        -1.46504         4.76656
     2013.07871        -4.00183         4.77011
     2013.08145        -2.25662         4.77807
     2013.08418        -5.37541         4.76568
     2013.08692        -3.34120         4.76568
     2013.08966       -10.18798         4.77453
     2013.09240        -3.38677         4.75860
     2013.09514         0.65544         4.80551
     2013.09787        -1.52835         4.99051
     2013.10061        -2.09914         5.11089
     2013.10335        -3.44093         4.85862
     2013.10609        -4.98271         4.76922
     2013.10882        -5.79450         4.76391
     2013.11156       -11.08329         4.87986
     2013.11430        -5.79008         4.76922
     2013.11704        -6.50787         4.86128
     2013.11978        -3.25866         4.94802
     2013.12251        -6.21944         4.76656
     2013.12525       -10.68123         5.20029
     2013.12799        -6.62302         4.84092
     2013.13073       -13.49881         4.79843
     2013.13347        -2.66060         4.83118
     2013.13620         0.25261         4.80020
     2013.13894         0.07183         4.78427
     2013.14168        -0.10196         4.92766
     2013.14442        -1.39875         5.02769
     2013.14715        -1.23054         5.05424
     2013.14989        -7.72133         4.81790
     2013.15263        -3.38312         4.89491
     2013.15537       -12.73490         4.77099
     2013.15811       -13.86869         4.82676
     2013.16084        -5.88748         4.77188
     2013.16358        -6.39727         4.80994
     2013.16632        -8.88106         4.75860
     2013.16906        -0.49984         4.77276
     2013.17180        -4.73063         4.81613
     2013.17453         1.17858         4.82764
     2013.17727         5.16579         4.86216
     2013.18001        -2.62400         4.89668
     2013.18275        -1.82679         4.72142
     2013.18548        -5.66557         4.74532
     2013.18822        -9.81436         4.88341
     2013.19096        -1.50315         4.83826
     2013.19370        -5.73794         4.78604
     2013.19644        -5.32573         4.82410
     2013.19917        -1.16852         4.80020
     2013.20191         0.46170         4.85065
     2013.20465        -3.19609         4.77542
     2013.20739        -0.55888         4.80374
     2013.21013        -1.83167         4.74178
     2013.21286        -3.64746         4.79843
     2013.21560         0.40075         4.80640
     2013.21834        -0.03103         4.77896
     2013.22108        -6.24282         4.74001
     2013.22381        -5.63761         4.77099
     2013.22655        -9.70140         4.72939
     2013.22929        -1.74219         4.73735
     2013.23203        -2.29098         4.75240
     2013.23477        -4.82676         4.75417
     2013.23750        -1.49355         4.95422
     2013.24024        -2.46434         4.88606
     2013.24298        -4.67513         4.82321
     2013.24572         7.87208         4.82410
     2013.24846         3.32129         4.86570
     2013.25119        -1.74349         4.84977
     2013.25393        -0.95628         4.84888
     2013.25667         3.12693         5.03388
     2013.25941         6.62814         4.81259
     2013.26214         4.60335         4.87721
     2013.26488        -0.00244         4.88872
     2013.26762         1.14578         4.82853
     2013.27036        -5.38801         4.84977
     2013.27310        -3.87280         5.01529
     2013.27583        -2.32259         4.89580
     2013.27857         2.25962         4.97900
     2013.28131        -0.13316         4.84977
     2013.28405        -2.99795         4.85597
     2013.28679        -0.06074         4.83649
     2013.28952        -7.28453         4.82941
     2013.29226        -7.11332         4.83649
     2013.29500        -7.71311         4.84269
     2013.29774        -4.71789         4.88518
     2013.30047       -11.03668         4.84357
     2013.30321        -6.91147         4.83738
     2013.30595        -2.23626         4.81436
     2013.30869       -10.88305         4.99051
     2013.31143        -8.43784         4.84092
     2013.31416        -0.71162         4.83295
     2013.31690        -5.36241         4.86482
     2013.31964        -3.74420         4.87544
     2013.32238         2.45901         4.87190
     2013.32512        -7.22878         4.91970
     2013.32785        -6.62057         4.91350
     2013.33059        -6.03935         4.83384
     2013.33333        -7.70114         4.88518
     2013.33607        -6.31193         4.83915
     2013.33880        -8.92472         4.86924
     2013.34154         8.49549         4.83738
     2013.34428        -0.55930         4.92412
     2013.34702         3.10392         4.85065
     2013.34976         3.41013         4.84180
     2013.35249        -6.24866         4.82853
     2013.35523         0.30455         4.95687
     2013.35803         8.34777         5.04981
     2013.36076        -1.59202         5.17728
     2013.36350        -3.40081         5.04539
     2013.36624         1.14640         4.94448
     2013.36892        -1.39739         4.83561
     2013.37166        -0.93918         4.85420
     2013.37428        -1.53798         5.03477
     2013.38376         3.30976        12.15762
     2013.38535        -8.85312         5.16843
     2013.38809        -1.07091         4.80197
     2013.39082        -3.60870         4.94094
     2013.39356        -4.46248         4.89668
     2013.39630        -3.83927         4.88252
     2013.39904        -2.15206         4.93297
     2013.40177         2.31715         4.84534
     2013.40451         3.25236         4.85508
     2013.40725         0.79457         5.03388
     2013.40999        -0.67921         4.87632
     2013.41273        -0.48100         4.92943
     2013.41546         0.47021         5.05867
     2013.41820         0.28242         4.88872
     2013.42094        -0.79137         4.92324
     2013.42368        -2.27216         4.94979
     2013.42642         0.53606         4.94537
     2013.42915         2.81927         4.93563
     2013.43189        -0.29252         4.96927
     2013.43463         2.16969         5.00821
     2013.43737         2.54890         4.91881
     2013.44010         0.02311         4.94625
     2013.44284         1.11733         4.91262
     2013.44558         0.93154         4.95333
     2013.44832        -2.98025         4.87278
     2013.45106        -5.89204         5.02503
     2013.45379        -2.42983         5.03211
     2013.45653        -4.08162         4.92943
     2013.45927        -3.65840         4.96838
     2013.46201        -3.65219         4.96838
     2013.46475         2.30302         4.91881
     2013.46748        -5.47077         4.90907
     2013.47022        -8.77356         4.89137
     2013.47296        -4.30334         4.92589
     2013.47570        -0.17213         4.86305
     2013.47843         4.39708         4.88429
     2013.48117         7.69629         4.90996
     2013.48391         1.68750         4.88429
     2013.48665        -5.24029         4.85597
     2013.48939        -0.82707         4.84357
     2013.49212        -6.96386         4.82410
     2013.49486        -5.94665         4.81525
     2013.49760         1.63456         4.89403
     2013.50034         1.08077         4.91616
     2013.50308        -6.24802         4.83561
     2013.50581        -4.59680         4.86747
     2013.50855        -1.85459         4.86836
     2013.51129        -2.11638         4.82853
     2013.51403        -0.36717         4.76745
     2013.51676        -5.10096         4.77984
     2013.51950        -4.82075         4.82410
     2013.52224        -1.05653         4.86128
     2013.52498        -2.30332         4.97281
     2013.52772         2.88589         4.84977
     2013.53045        -0.27990         4.84711
     2013.53319         1.55331         4.80817
     2013.53593         4.10652         4.82941
     2013.53867        -4.76026         4.93563
     2013.54141         3.43995         4.90465
     2013.54414         0.73416         4.80994
     2013.54688        -3.10463         4.83738
     2013.54962        -4.13342         4.84623
     2013.55236        -2.85521         4.81613
     2013.55509        -4.10799         4.81348
     2013.55686         3.66314         8.86484
     2013.57529         3.95457        10.76350
     2013.57597        -4.58038        10.01377
     2013.63797         5.74242         7.89205
     2013.63997        19.42757         5.75351
     2013.64271        -0.23922         4.95422
     2013.64544         3.65099         4.82144
     2013.64818         2.37220         4.87721
     2013.65092         2.59142         4.82853
     2013.65366         1.86663         4.86924
     2013.65639         5.92484         4.83561
     2013.65913        10.81905         5.13125
     2013.66187         2.91326         4.82853
     2013.66461        -2.83853         4.80905
     2013.66735         3.71169         4.91881
     2013.67008         5.99290         5.01618
     2013.67282         5.40611         5.00910
     2013.67556         4.37232         4.99405
     2013.67830         9.43753         4.80728
     2013.68104         9.46675         4.86216
     2013.68377         5.84696         4.83561
     2013.68651         1.89317         4.85597
     2013.68925         6.12038         4.84534
     2013.69199         1.88359         4.80463
     2013.69472         7.66780         4.78161
     2013.69746         4.53802         4.80020
     2013.70020         4.14423         4.86393
     2013.70294         4.73744         4.90996
     2013.70568        11.35865         4.86747
     2013.70841         2.33186         4.82676
     2013.71115         3.80507         4.86039
     2013.71389        -1.99971         4.79843
     2013.71663         4.23050         4.90111
     2013.71937         9.76071         5.20472
     2013.72210        19.18892         4.91439
     2013.72484         8.72713         4.82853
     2013.72758        12.19734         4.82499
     2013.73032         9.30256         4.82941
     2013.73305         9.36777         4.78869
     2013.73579         6.27298         4.81525
     2013.73853        -0.43081         4.83384
     2013.74127         9.75740         4.85685
     2013.74401        10.05561         5.03654
     2013.74674        -1.54817         5.00113
     2013.74948         3.94004         4.87632
     2013.75222        -1.01375         4.79312
     2013.75496        -1.94554         4.84534
     2013.75770        -4.87533         4.78781
     2013.76043        -4.37112         4.78692
     2013.76317        -3.60690         4.82941
     2013.76591         0.16031         4.92412
     2013.76865        -4.66048         4.79932
     2013.77138        -1.81227         4.80551
     2013.77412         0.17694         4.90199
     2013.77686        -4.38284         4.82853
     2013.77960        -1.72963         4.85420
     2013.78234        -6.74742         4.82587
     2013.78507        -7.63721         4.80905
     2013.78781        -8.62900         4.81259
     2013.79055        -2.69979         4.85862
     2013.79329        -4.88857         4.83561
     2013.79603        -1.14436         4.79489
     2013.79876        -0.74415         4.77984
     2013.80150         4.14406         4.92324
     2013.80424         3.45727         4.90465
     2013.80698         3.81048         4.80817
     2013.80971         4.56170         4.82853
     2013.81245         7.17791         4.80286
     2013.81519         1.33812         4.80994
     2013.81793        -0.30667         4.80640
     2013.82067         2.56254         4.98697
     2013.82340         6.55575         4.84446
     2013.82614         0.78997         4.92324
     2013.82888         3.66018         4.82853
     2013.83162         0.99939         4.95333
     2013.83436         1.97560         4.94183
     2013.83709         2.42181         4.99405
     2013.83983         2.55002         4.92589
     2013.84257         3.61324         4.86836
     2013.84531         3.06645         4.89491
     2013.84804         1.93666         4.80551
     2013.85078         1.64587         4.90465
     2013.85352         0.50808         4.82941
     2013.85626         2.03229         4.81259
     2013.85900        -1.19449         4.84800
     2013.86173        -1.50228         4.84888
     2013.86447        -0.86207         4.97812
     2013.86721         3.63214         4.83118
     2013.86995        -0.16565         4.82144
     2013.87269         4.26056         4.85508
     2013.87542         9.78478         4.83826
     2013.87816         4.59799         4.84534
     2013.88090         4.85020         4.94360
     2013.88364        12.46641         5.08168
     2013.88637         6.32662         4.89314
     2013.88911        -2.03016         4.80640
     2013.89185        -4.61395         4.81613
     2013.89459        -1.93074         4.83826
     2013.89733         1.97447         4.79223
     2013.90001        -2.33732         4.99671
     2013.90280        -5.49611         4.87809
     2013.90554        -1.80889         4.80728
     2013.90828         1.36832         4.83561
     2013.91102        -1.12147         4.85154
     2013.91375        -3.98526         4.81525
     2013.91649         5.47495         4.79932
     2013.91923         2.10116         5.01352
     2013.92197        -0.35662         5.03919
     2013.92470        -0.59941         4.84977
     2013.92744         0.62880         4.88341
     2013.93018         6.66001         4.78958
     2013.93292        -7.18378         4.81348
     2013.93566       -11.41457         4.75594
     2013.93839        -5.76535         4.81348
     2013.94113        -6.59614         4.78692
     2013.94387         0.73607         4.77365
     2013.94661         2.87128         4.90111
     2013.94935         5.33449         4.77365
     2013.95208         0.68570         4.82764
     2013.95482        -3.85208         4.91704
     2013.95756        -1.56687         4.77011
     2013.96030         5.92634         4.78869
     2013.96303         8.01455         4.85774
     2013.96577         4.72876         4.90907
     2013.96851         3.48997         4.84534
     2013.97125         9.32719         4.84092
     2013.97399         1.41640         4.82587
     2013.97672        -1.95639         4.80728
     2013.97946         2.69982         4.74532
     2013.98220         0.55903         4.95068
     2013.98494        -3.32875         4.80286
     2013.98767        -5.03654         4.84180
     2013.99041        -5.39333         4.85774
     2013.99315        -8.56812         4.79135
     2013.99589        -6.05491         4.80374
     2013.99863        -6.25070         4.85774
     2014.00416        -4.64427         4.88164
     2014.00684         2.45594         4.89491
     2014.00958         2.08415         4.79843
     2014.01232        -6.15564         4.89934
     2014.01505        -2.27443         4.95333
     2014.01779        -7.09221         4.87190
     2014.02053        -0.26800         4.81790
     2014.02327         0.97821         4.98608
     2014.02600         2.96142         4.95156
     2014.02874         5.48863         4.99316
     2014.03148         1.56084         4.82056
     2014.03422        -0.77994         4.78338
     2014.03696        -0.19173         4.78338
     2014.03969        -0.54652         4.99316
     2014.04243        -2.38131         4.97635
     2014.04517         4.28690         4.95156
     2014.04791        -1.23989         4.74532
     2014.05065         2.83933         4.84269
     2014.05338        -3.60246         4.79046
     2014.05612        -4.74125         4.81525
     2014.05886        -4.81404         4.82676
     2014.06160         5.05117         5.06663
     2014.06433         2.38538         4.92501
     2014.06707         3.57460         4.97281
     2014.06981         0.91181         4.85065
     2014.07255        -0.63598         4.79932
     2014.07529         4.54523         4.80551
     2014.07805         7.18945         5.45964
     2014.08076         8.68166         4.84888
     2014.08350        -0.68613         4.83738
     2014.08624        -0.13492         4.90465
     2014.08898        -1.84371         5.01529
     2014.09171         2.86450         5.00379
     2014.09445         2.02971         4.81259
     2014.09719        -0.75707         4.93563
     2014.09993         7.50114         4.81259
     2014.10266         7.24435         4.91439
     2014.10540         6.85256         4.89668
     2014.10814         3.85677         4.85685
     2014.11088         3.72998         4.96218
     2014.11362         2.46520         4.81613
     2014.11635         4.37441         4.86216
     2014.11909         3.45962         4.89137
     2014.12183         8.61083         4.90288
     2014.12457        14.33604         5.00202
     2014.12731         7.25525         4.81082
     2014.12959         4.36543         6.12262
     2014.13278        -1.36432         5.01441
     2014.13552         3.97889         4.90996
     2014.13826        -1.34190         4.79046
     2014.14099         7.21331         4.78692
     2014.14373         0.42152         4.86393
     2014.14647        -0.36526         4.91793
     2014.14921         1.46595         4.87190
     2014.15195        -0.30784         4.89934
     2014.15468         7.56037         4.87101
     2014.15742         6.04858         4.90199
     2014.16016         6.57079         5.05424
     2014.16290         2.62101         4.92501
     2014.16564         2.79022         5.01087
     2014.16837        -2.16757         5.08699
     2014.17111        -0.63736         4.98166
     2014.17385        12.47885         5.16666
     2014.17659         2.94606         5.00556
     2014.17932         7.90328         5.14984
     2014.18206         1.68849         4.96572
     2014.18480         5.84370         5.41892
     2014.18754         0.09291         5.33395
     2014.19028        -1.84788         4.87455
     2014.19301         1.29134         4.87898
     2014.19575         1.43055         4.83472
     2014.19849         4.87376         4.91527
     2014.20123         1.98897         4.84446
     2014.20397        -1.58182         4.85597
     2014.20670         0.51439         4.94979
     2014.20944         3.41461         4.89137
     2014.21218         4.67882         4.84977
     2014.21492        -1.06597         4.98520
     2014.21765         2.57424         4.84888
     2014.22039         0.22445         4.86128
     2014.22313         1.30266         4.84800
     2014.22587         2.16288         5.08257
     2014.22861        14.86509         5.58976
     2014.23134         5.42330         5.34369
     2014.23408        -0.41549         5.53665
     2014.23682         2.34272         4.95864
     2014.23956         0.73593         5.08345
     2014.24230         5.72615         4.83649
     2014.24503        -0.18564         4.85862
     2014.24777         3.64357         5.03211
     2014.25051        -2.82322         4.86216
     2014.25325        -2.97301         4.85420
     2014.25598         1.18420         4.99139
     2014.25872         0.68242         4.83295
     2014.26146        -0.10337         5.00644
     2014.26420        -1.20616         4.86482
     2014.26694        -0.23895         4.88872
     2014.26967        -3.09074         4.89668
     2014.27241        -1.29353         5.01264
     2014.27515        -1.38531         4.98431
     2014.27789         3.72090         4.90642
     2014.28062        -1.24089         4.87544
     2014.28336        -3.09768         4.88606
     2014.28610         0.93453         4.98166
     2014.28884        -1.40025         5.60392
     2014.29158        -5.35804         4.87190
     2014.29431        -1.51083         4.85862
     2014.29705         3.76038         4.99936
     2014.29979        -8.02941         4.87721
     2014.30253        -4.00420         4.88872
     2014.30527        -0.42698         4.89845
     2014.30800         0.01123         4.86305
     2014.31074        -1.53456         4.95333
     2014.31348         0.26365         4.90111
     2014.31622         1.49286         4.83030
     2014.31895        -5.25293         4.90111
     2014.32169       -13.20871         4.93651
     2014.32443        -9.59350         4.97104
     2014.32717        -8.84429         5.00379
     2014.32991        -0.39908         4.84800
     2014.33264         0.00813         5.04450
     2014.33538        -5.69866         4.84623
     2014.33812        -3.82244         4.99848
     2014.34086        -0.71323         4.89580
     2014.34360        -4.10102         4.85862
     2014.34633        -5.27481         4.86128
     2014.34907        -1.34160         5.32687
     2014.35181        -5.81739         5.00202
     2014.35455        -1.17817         4.88075
     2014.35728        -6.25096         4.85597
     2014.36002        -9.73275         4.86924
     2014.36276        -6.19654         4.88341
     2014.36550        -3.50133         4.85774
     2014.36824        -8.93712         4.95864
     2014.37097         0.72710         5.35785
     2014.37371        -9.63869         4.92147
     2014.37645         1.97852         5.02149
     2014.37919        -0.09327         4.92235
     2014.38193        -8.81306         4.92766
     2014.38466        -6.41485         4.94094
     2014.38740        -8.86763         4.98874
     2014.39014        -3.31242         5.01972
     2014.39288        -7.91821         4.91527
     2014.39561        -2.38400         4.98343
     2014.39835        -2.19379         5.01264
     2014.40109        -2.58657         4.87986
     2014.40383        -3.03236         4.92766
     2014.40657        -7.45615         4.89403
     2014.40930        -6.55494         4.92058
     2014.41204        -7.70473         5.01175
     2014.41478        -1.66352         4.88252
     2014.41752        -5.71930         4.86128
     2014.42026        -3.25209         4.86393
     2014.42299        -1.38288         4.85508
     2014.42573        -1.64367         4.94183
     2014.42847         2.53254         5.12771
     2014.43121        -4.05425         4.92766
     2014.43394        -8.36903         4.92943
     2014.43668       -11.08182         5.02857
     2014.43942        -4.73861         4.89314
     2014.44216        -8.21240         4.89934
     2014.44490        -5.75019         5.12417
     2014.44763        -3.79898         5.09584
     2014.45037        -7.50376         4.86659
     2014.45311        -4.80755         4.83826
     2014.45585        -9.00234         4.89403
     2014.45859        -8.30813         4.92235
     2014.46132        -8.09292         4.86393
     2014.46406        -3.72671         4.87544
     2014.46680        -8.08249         5.43220
     2014.46954        -5.96128         4.87809
     2014.47227        -3.12607         4.87101
     2014.47501        -3.59086         4.94537
     2014.47775        -1.82165         4.86482
     2014.48049        -2.43944         4.88164
     2014.48323         1.16678         4.90730
     2014.48596         3.74099         5.03831
     2014.48870         1.28820         4.86305
     2014.49144        -1.69759         4.79046
     2014.49418        -6.28938         4.80286
     2014.49692        -2.01216         4.80640
     2014.49965        -1.15795         4.91173
     2014.50239        -6.92574         4.88872
     2014.50513        -1.09653         4.97015
     2014.50787        -1.01732         4.81879
     2014.51060        -8.45211         4.84977
     2014.51334        -5.83689         4.85331
     2014.51608         2.19632         4.89491
     2014.51882        -4.51747         4.87809
     2014.52156        -2.97726         4.98962
     2014.52429         4.77495         4.93032
     2014.52703         3.00216         4.83915
     2014.52977        -0.18462         4.92855
     2014.53251         0.52559         4.86747
     2014.53525         5.12080         4.96661
     2014.53798         9.43601         5.01441
     2014.54072         8.29522         4.99139
     2014.54346        -0.47657         4.85508
     2014.54620         2.64365         5.04539
     2014.54893         8.85986         4.87455
     2014.55167         5.41107         4.98785
     2014.55441         4.78728         5.02769
     2014.55675        -4.26354         5.94736
     2014.55989        -0.50630         4.81613
     2014.56262         2.12692         4.82853
     2014.56536        -5.60487         4.81525
     2014.57170       -14.15038         8.32666
     2014.57357         1.31576         4.96130
     2014.57631        -2.83003         4.84623
     2014.57905         2.49319         4.96484
     2014.58179         5.93540         5.04008
     2014.58453        -3.44739         4.90111
     2014.58726        -1.61918         5.15692
     2014.59000         1.47803         4.97546
     2014.59274        -0.51775         5.06575
     2014.59548        -1.88954         5.01618
     2014.59822         3.09267         5.11620
     2014.60095         0.89488         4.98431
     2014.60369         5.40409         4.97989
     2014.60643        -2.20570         4.87986
     2014.60917         1.93552         4.91439
     2014.61156        -2.12530         5.88186
     2014.61561        -1.84799         9.44638
     2014.61738         3.07415         5.03919
     2014.62012        -1.49964         4.99936
     2014.62286        -2.83443         4.99051
     2014.62559        -0.01221         4.91793
     2014.62833        -2.89300         4.91262
     2014.63107         5.98721         4.99405
     2014.63381        -1.77758         5.12948
     2014.63655        -8.17937         5.50567
     2014.63928         5.54184         5.07548
     2014.64202        -4.40594         4.89137
     2014.64476        -6.36673         4.92589
     2014.64750        -1.63452         4.89403
     2014.65023        -1.59131         4.86747
     2014.65263         6.78888         5.60569
     2014.65936       -25.75060         9.08701
     2014.66119         4.26154         4.96218
     2014.66392         6.72175         4.87632
     2014.66666         5.99296         4.88252
     2014.66940         1.93917         4.86482
     2014.67214         0.18138         4.92412
     2014.67488        -3.07740         4.86747
     2014.67761        -1.43619         4.86659
     2014.68035         1.95302         4.86128
     2014.68309        -1.84377         4.88341
     2014.68583         4.25144         4.90642
     2014.68856        -1.01935         4.88606
     2014.69130        -1.31313         4.86305
     2014.69404         3.59908         4.86570
     2014.69678        -1.65571         5.01529
     2014.69952         2.77650         4.81790
     2014.70225         5.93571         4.86659
     2014.70499         3.41993         4.86836
     2014.70773         7.59214         4.86393
     2014.71047         9.88435         4.94979
     2014.71321         8.91356         4.89403
     2014.71594        -0.92523         4.85774
     2014.71868         3.51798         4.94006
     2014.72142         2.53720         4.79755
     2014.72416         7.85041         4.84711
     2014.72689         2.21462         4.97812
     2014.72963        14.30383         4.88341
     2014.73237         5.29904         5.03123
     2014.73511        -0.44875         4.80817
     2014.73785        -4.17553         4.87632
     2014.74058        -3.60432         4.92766
     2014.74332         2.83589         4.91616
     2014.74606        -0.74190         4.98608
     2014.74880        -0.79569         4.82764
     2014.75154        -0.36748         4.95333
     2014.75427         1.28974         5.01883
     2014.75701        -2.50705         4.84092
     2014.75975         0.90916         4.85065
     2014.76249         4.48337         4.82321
     2014.76522         4.94058         4.88872
     2014.76796         0.17279         4.96484
     2014.77070        -2.53899         4.92412
     2014.77344        -0.88378         4.87101
     2014.77618         5.91443         5.04627
     2014.77891         0.06464         4.82941
     2014.78165         1.58585         4.79843
     2014.78439         8.61606         5.06398
     2014.78713        15.68228         4.89757
     2014.78987         3.18549         4.83915
     2014.79260         5.90970         4.85597
     2014.79534         6.93891         4.82056
     2014.79808        10.18512         4.96218
     2014.80082        14.64434         4.91173
     2014.80355         5.86055         5.01972
     2014.80629        10.08276         4.91527
     2014.80903         5.57297         4.96750
     2014.81177         7.80518         4.80020
     2014.81451         6.83139         4.91616
     2014.81724         7.48361         4.91970
     2014.81998         9.26382         4.85862
     2014.82266         7.45602         5.07548
     2014.82454        21.02117         8.83740
     2014.82905         4.78752         8.27975
     2014.83093         7.59966         4.93386
     2014.83367         1.55088         4.87632
     2014.83641         2.30509         4.86305
     2014.83915         3.80230         4.87721
     2014.84188         5.81151         5.08876
     2014.84462        -0.07928         4.89757
     2014.84736        -3.33507         5.02237
     2014.85010         0.17115         4.90199
     2014.85284         6.42736         4.89491
     2014.85557        -1.80143         5.09673
     2014.85831         0.36378         4.90996
     2014.86105         1.56899         5.07194
     2014.86379        -1.26780         4.88429
     2014.86653         1.74542         5.04804
     2014.86926         3.90663         4.92147
     2014.87200         4.80684         4.89757
     2014.87474        -4.19995         4.88695
     2014.87748        -1.75874         4.87986
     2014.88021        -0.59353         5.19764
     2014.88295        -0.81531         4.97635
     2014.88569         3.93090         5.19764
     2014.88843         1.72711         5.16843
     2014.89117        12.85132         5.29058
     2014.89390         4.63653         5.02946
     2014.89664         1.48275         5.16754
     2014.89938         0.71396         5.20826
     2014.90212        -3.90683         5.04008
     2014.90485        -2.87262         4.98785
     2014.90759         7.12759         4.99848
     2014.91033         7.06880         4.93209
     2014.91307         5.00802         4.89491
     2014.91581         6.46923         4.91350
     2014.91854         8.72744         4.88341
     2014.92128         3.47765         4.89580
     2014.92402         4.46586         4.89226
     2014.92676         0.94207         5.00025
     2014.92921         0.84626         5.71191
     2014.93223        -1.55350         4.92324
     2014.93497        -2.82429         5.30297
     2014.93771       -16.71908         5.11532
     2014.94045         6.23313         5.07017
     2014.94318         6.71734         5.30740
     2014.94592         5.44056         4.89757
     2014.94866        -1.31223         4.81525
     2014.95140        -7.18302         4.83472
     2014.95414         7.95019         4.86836
     2014.95687         6.90140         4.86482
     2014.95961         9.55761         4.88872
     2014.96235         2.50583         4.85420
     2014.96509         0.62204         4.98254
     2014.96783        -0.60975         4.78781
     2014.97056         1.19846         4.83561
     2014.97330        -6.05333         4.96838
     2014.97604        -4.02112         4.79666
     2014.97878         1.32410         4.78869
     2014.98151         4.80931         4.90111
     2014.98425        -7.72148         4.78958
     2014.98699         0.04573         4.81790
     2014.98973        -4.72906         4.82853
     2014.99247        -6.64185         4.92678
     2014.99520        -6.93563         4.75948
     2014.99794         1.51158         4.81259
     2015.00068         0.40479         4.78427
     2015.00342        -5.16200         4.79223
     2015.00616        -6.03479         4.81259
     2015.00889        -6.12457         4.89580
     2015.01163        -6.95136         4.91616
     2015.01437         0.01885         5.01175
     2015.01711        -0.95294         4.86659
     2015.01984         3.74727         4.85951
     2015.02258         3.37748         4.92501
     2015.02532         2.44870         4.90199
     2015.02806         4.11991         4.89137
     2015.03080         7.96812         5.08965
     2015.03353        -1.22467         4.86039
     2015.03627        -0.72746         4.84800
     2015.03901         4.05675         4.93297
     2015.04175        10.58097         5.00290
     2015.04449         4.04718         4.95333
     2015.04722        10.35439         5.02857
     2015.04996        -1.59440         5.07460
     2015.05270         0.89281         4.87898
     2015.05544         0.23302         4.90111
     2015.05817        -1.27876         4.88872
     2015.06091         1.96645         4.94714
     2015.06365         6.78366         4.97281
     2015.06639         2.14087         4.82144
     2015.06913         0.69708         4.85420
     2015.07186         0.55429         4.84534
     2015.07460        -0.23849         4.82676
     2015.07734        -7.32028         4.81436
     2015.08008       -10.33507         4.78515
     2015.08282        -2.08686         4.81436
     2015.08555         3.28535         4.88872
     2015.08829        10.25556         4.87721
     2015.09103        11.53878         4.92147
     2015.09377         8.25299         4.86836
     2015.09650         9.55420         4.95687
     2015.09924        17.90141         5.00556
     2015.10198        14.29562         4.98166
     2015.10472        16.76084         5.03565
     2015.10746         4.82005         4.95422
     2015.11019        -9.34674         5.15338
     2015.11293        -6.40353         4.88429
     2015.11567        -2.12732         4.82321
     2015.11841        -5.56011         4.83826
     2015.12115         0.71011         4.84888
     2015.12388        -1.42468         4.84357
     2015.12662        -6.00647         4.83207
     2015.12936        -0.84626         4.79400
     2015.13210         3.62295         5.24455
     2015.13483        -3.21884         4.91262
     2015.13757        -0.44362         4.89580
     2015.14031        -1.57941         4.83561
     2015.14305        -2.79620         4.85774
     2015.14579        -1.95999         4.84180
     2015.14852         0.91122         4.83915
     2015.15126         0.79043         4.88695
     2015.15400        -4.63235         5.07194
     2015.15674         4.14786         4.88164
     2015.15948         6.67007         4.87367
     2015.16221         4.90028         4.87013
     2015.16495         1.49349         4.79843
     2015.16769        -2.08730         4.81525
     2015.17043         1.94792         4.82941
     2015.17316         0.33413         4.97015
     2015.17590        -1.43666         5.09230
     2015.17864        -0.06745         4.80817
     2015.18138         2.87076         4.80020
     2015.18412         3.35997         4.86216
     2015.18685         1.68619         4.89845
     2015.18959         1.77440         4.93120
     2015.19233         1.41961         4.96661
     2015.19507        -2.70118         4.96661
     2015.19780         4.84403         4.90996
     2015.20054         1.92925         4.91262
     2015.20328         0.79846         4.83472
     2015.20602        -6.27233         4.94537
     2015.20876        -6.78512         5.01706
     2015.21149        -9.84391         4.85154
     2015.21423        -5.65470         5.12682
     2015.21697        -4.17948         4.89934
     2015.21971        -2.62327         4.89049
     2015.22245        -2.08906         4.84180
     2015.22518         0.61315         4.81259
     2015.22792        -6.36864         4.82587
     2015.23066        -5.64743         4.79755
     2015.23340        -3.08721         4.93917
     2015.23613        -0.65700         5.00556
     2015.23887        -5.47679         5.05336
     2015.24161        -4.72558         5.11886
     2015.24435         3.68463         5.41184
     2015.24709        -4.61416         5.01706
     2015.24981        -2.34895         4.84977
     2015.25256        -1.26573         4.82321
     2015.25530         2.21148         4.81702
     2015.25804        -2.68231         4.84269
     2015.26078         4.93890         4.82764
     2015.26351         1.79911         4.83030
     2015.26625         0.81533         4.81702
     2015.26899        -3.86246         4.77896
     2015.27173         5.33575         4.93740
     2015.27446         1.06496         4.95068
     2015.27720        -0.12383         4.83826
     2015.27994        -2.88862         4.81348
     2015.28268        -3.33340         4.80109
     2015.28542        -7.75219         4.92855
     2015.28815        -5.49998         4.92235
     2015.29089        -5.23877         4.84092
     2015.29363        -3.37956         4.81967
     2015.29637        -4.25635         4.80374
     2015.29911        -0.05113         4.80109
     2015.30184        -0.18092         4.91793
     2015.30454        -5.42571         4.86216
     2015.30733        -8.89950         4.71434
     2015.31006        -1.80629         4.80286
     2015.31279        -6.78807         4.71080
     2015.31553        -6.32886         4.71523
     2015.31827        -7.12665         4.81259
     2015.32101         4.35656         4.82853
     2015.32375        -1.27523         4.68602
     2015.32648        -7.26802         4.85508
     2015.32922        -6.43080         4.83295
     2015.33196        -2.55359         4.99405
     2015.33470        -2.75438         4.73470
     2015.33744        -5.13917         4.83826
     2015.34017        -8.49896         4.71257
     2015.34291        -5.28675         4.72319
     2015.34565        -6.25253         4.75240
     2015.34839        -5.16832         4.72231
     2015.35112        -2.44511         4.74090
     2015.35386        -0.64590         4.78427
     2015.35660        -5.36369         4.72939
     2015.35934        -4.64248         4.79843
     2015.36208        -6.45126         4.77099
     2015.36481        -2.25905         4.70903
     2015.36755        -2.69784         4.72408
     2015.37029        -0.69463         4.70991
     2015.37303        -2.84642         4.70726
     2015.37577        -2.12321         4.69841
     2015.37850        -4.61499         4.83030
     2015.38124        -0.85978         4.73824
     2015.38398        -3.88357         4.73293
     2015.38672        -3.88436         4.75152
     2015.38945        -5.82315         4.81348
     2015.39219        -2.33094         4.69044
     2015.39493        -5.94272         4.76037
     2015.39767       -10.39151         4.77807
     2015.40041        -5.67530         4.81967
     2015.40314        -9.88409         4.86747
     2015.40588        -2.58688         4.81702
     2015.40862        -1.97266         4.80994
     2015.41136        -1.38445         4.79223
     2015.41410        -0.78924         5.00025
     2015.41683        -2.96803         4.72939
     2015.41957        -2.46282         4.75506
     2015.42231        -4.00461         4.69133
     2015.42505        -6.20439         4.85065
     2015.42778        -7.23918         4.75948
     2015.43052        -0.61797         4.75948
     2015.43326        -4.25376         4.72054
     2015.43600        -9.03155         4.93209
     2015.43874        -0.46234         4.80374
     2015.44147        -4.86012         5.01175
     2015.44421        -7.23291         4.76479
     2015.44695        -2.55370         4.79046
     2015.44969       -10.18749         4.70637
     2015.45243        -7.23028         4.82233
     2015.45516        -1.89307         4.76745
     2015.45790        -2.44285         4.86482
     2015.46064        -4.46664         4.92324
     2015.46338        -5.20743         4.99936
     2015.46611        -2.43222         4.73912
     2015.46885         5.51499         4.83472
     2015.47159        -5.94880         4.76745
     2015.47433        -3.06258         4.88872
     2015.47707        -7.50937         4.85685
     2015.47980        -1.79916         4.85685
     2015.48254         1.85005         4.97369
     2015.48528        -4.01074         4.93740
     2015.48802       -10.97753         4.88164
     2015.49076        -2.30631         4.79489
     2015.49349        -1.52410         4.92147
     2015.49623         2.14611         4.98697
     2015.49897         1.63532         4.94891
     2015.50171         4.18953         4.80374
     2015.50444        -1.99825         4.82321
     2015.50718         0.83896         4.84269
     2015.50992         7.31217         5.12417
     2015.51266         2.85138         4.77188
     2015.51540         3.78559         4.85242
     2015.51802         5.39780         4.99936
     2015.52087         5.88702         4.76834
     2015.52361         0.24123         4.90730
     2015.52635        -3.29956         4.76568
     2015.52908        -0.73135         4.85154
     2015.53182        -0.37114         4.75240
     2015.53456        -2.52693         4.79312
     2015.53730        -4.61071         4.86836
     2015.54004         0.24250         4.99494
     2015.54277         0.13271         4.88075
     2015.54551        10.83092         4.87367
     2015.54825         2.23113         5.00025
     2015.55099        10.09834         4.97635
     2015.55373         3.56656         4.96307
     2015.55646         6.65277         4.90819
     2015.55920         5.15398         5.09053
     2015.56194        10.78419         4.92501
     2015.56468         7.94340         4.93917
     2015.56741        -2.60139         4.96661
     2015.57015         2.96283         4.98962
     2015.57289         2.72204         4.97546
     2015.57563         3.77225         4.93829
     2015.57837         3.96546         4.82410
     2015.58110         5.00067         4.89845
     2015.58384         7.72988         5.04893
     2015.58658         5.06610         4.92766
     2015.58932         2.13431         5.02237
     2015.59206         1.23952         4.91262
     2015.59479         2.78973         4.91262
     2015.59753         8.38594         4.95953
     2015.60027        -0.03385         4.96838
     2015.60301         6.36937         5.14984
     2015.60574         6.21758         4.90907
     2015.60848         6.23379         4.89668
     2015.61122         2.95000         4.98166
     2015.61396         5.47021         5.11620
     2015.61670         7.33243         4.81082
     2015.61943         1.99564         4.72496
     2015.62217         5.25185         4.75240
     2015.62491         4.26206         4.73293
     2015.62765         9.56527         4.74444
     2015.63039         4.56148         4.87809
     2015.63312         9.49170         4.91350
     2015.63586        -2.96009         4.85951
     2015.63860         8.93212         4.77099
     2015.64134        11.45233         4.74886
     2015.64407         1.14954         4.75683
     2015.64681         3.46975         4.90730
     2015.64955         3.67297         4.78250
     2015.65229         0.97618         4.72231
     2015.65503         7.03639         4.76125
     2015.65776        10.61960         5.29854
     2015.66050         1.67381         4.78338
     2015.66324         5.86702         4.70372
     2015.66598         2.92624         4.84357
     2015.66872        15.27845         5.17728
     2015.67145        -3.99134         4.76479
     2015.67419        -0.18113         4.74178
     2015.67693         1.48108         4.77896
     2015.67967         5.60729         4.74798
     2015.68240         0.39151         4.72939
     2015.68514        -2.01728         5.07460
     2015.68789         9.26893         4.74621
     2015.69062        10.31114         4.74975
     2015.69336         4.16835         4.85242
     2015.69609         4.58456         4.75948
     2015.69883         6.30878         4.80463
     2015.70157         3.14399         5.07725
     2015.70431         4.95520         4.73647
     2015.70705         8.16941         4.72142
     2015.70978        10.85262         4.75506
     2015.71252         0.84284         4.71877
     2015.71526         5.33005         4.78073
     2015.71800         3.70326         4.75594
     2015.72073         7.36747         4.83826
     2015.72307         3.91765         5.68093
     2015.72992         7.27418         8.67895
     2015.73169         1.41632         4.80197
     2015.73363         1.83647         7.30696
     2015.73716         9.93474         4.73293
     2015.73990        10.97895         4.81702
     2015.74264         6.35716         4.83915
     2015.74538         8.19338         4.93032
     2015.74811         2.44759         4.96484
     2015.75085        -3.82520         4.79046
     2015.75359        -3.51799         4.84888
     2015.75633         5.77122         4.76037
     2015.75906         6.76843         4.72850
     2015.76180         5.34565         4.75594
     2015.76454         8.29086         4.75506
     2015.76728         7.15707         4.78427
     2015.77002        13.85228         4.87013
     2015.77275         0.87449         4.89226
     2015.77549         8.14270         5.10381
     2015.77823         7.30692         4.75683
     2015.78097         5.71213         4.76214
     2015.78371         8.38734         4.76479
     2015.78650        11.38556         4.91527
     2015.78918         5.43776         4.78692
     2015.79198         9.73698         5.07991
     2015.79466         5.40719         4.77896
     2015.79739         2.36140         4.90642
     2015.80013         5.19461         4.92766
     2015.80287         2.11882         4.75506
     2015.80561         0.68503         4.79312
     2015.80835        -0.47976         4.76037
     2015.81108         3.08446         4.90642
     2015.81382         5.72767         5.05513
     2015.81656         5.78388         4.91793
     2015.81930         0.07609         4.86482
     2015.82203        10.08230         4.82056
     2015.82477         8.96452         4.77896
     2015.82751         3.71173         4.86305
     2015.83031         0.41694         4.96927
     2015.83299         6.10015         5.16754
     2015.83572         5.06136         4.80994
     2015.83852         2.73458         4.92147
     2015.84120        -2.95421         4.84003
     2015.84399        -0.26600         4.93740
     2015.84668        -2.71379         4.83030
     2015.84941         3.07942         4.87721
     2015.85215         7.33063         4.90730
     2015.85489         8.83084         4.83207
     2015.85763         1.87406         4.80817
     2015.86036        -0.25273         4.82144
     2015.86310         3.37248         4.79489
     2015.86584         6.05069         4.84180
     2015.86858         5.94190         4.89403
     2015.87132         5.99711         5.06398
     2015.87405         0.60033         4.88341
     2015.87679         3.44854         4.94271
     2015.87953         7.86475         4.91881
     2015.88227         9.09796         4.87544
     2015.88501         3.64317         4.81702
     2015.88774         1.57838         4.84092
     2015.89048         4.03860         5.01352
     2015.89322         4.13681         4.79666
     2015.89596         4.60102         4.79666
     2015.89869         4.64823         4.76479
     2015.90143        -0.92656         4.78692
     2015.90417        -0.06135         4.79223
     2015.90691         2.89787         4.80463
     2015.90965         1.95508         4.77719
     2015.91512         0.63850         4.77453
     2015.91786         1.76171         4.88960
     2015.92060        10.77193         5.01529
     2015.92334         0.79714         4.91527
     2015.92607        -4.50465         4.91085
     2015.92881        10.36256         4.88518
     2015.93155         5.45377         5.02503
     2015.93429         0.25798         5.48443
     2015.93702         7.88320         5.09319
     2015.94250         2.72262         5.02415
     2015.94524         5.13983         4.89049
     2015.94798         8.69704         4.91970
     2015.95071         3.68625         4.80197
     2015.95345        -5.13953         4.83207
     2015.95625         0.30968         4.99671
     2015.95893        -0.40911         4.97192
     2015.96988         4.95374         4.94891
     2015.97262        13.46295         4.79046
     2015.97541         1.66516         4.92412
     2015.97809        -4.45463         4.76656
     2015.98083         1.30058         4.77896
     2015.98357        -7.87121         4.80020
     2015.98631         3.19501         5.08611
     2015.98904         0.98122         4.80994
     2015.99178        -5.09757         4.77453
     2015.99452        -2.60436         4.98254
     2015.99731        -4.14914         4.93032
     2016.00000        -2.01594         4.84977
     2016.00273        -3.54672         4.80817
     2016.00553         1.18449         4.89226
     2016.00821        -2.79030         4.82144
     2016.01095        10.06591         4.82499
     2016.01368        -8.16388         4.97015
     2016.01642        -3.15966         4.92324
     2016.01916        -3.82045         4.98254
     2016.02196         0.22776         4.98166
     2016.02464        -9.64103         4.87013
     2016.02737         2.81718         4.93120
     2016.03017        -0.29060         4.93829
     2016.03285         4.52961         4.81613
     2016.03559        -3.69318         4.81790
     2016.03838        -2.62997         4.97546
     2016.04106         4.27324         4.91085
     2016.04380        -1.33455         4.75594
     2016.04654         1.75166         4.81702
     2016.04928         6.79188         4.80286
     2016.05201        -1.58591         4.82410
     2016.05475        -0.45570         4.78073
     2016.05749         2.23051         4.82321
     2016.06029        -0.88027         4.89049
     2016.06297        -3.58407         4.73647
     2016.06570        -1.57485         4.84446
     2016.06844        -2.96964         4.88075
     2016.07118        -7.12743         5.04981
     2016.07392        11.19478         4.93474
     2016.07666        -1.28601         5.05159
     2016.07939         6.13520         4.86482
     2016.08213        -1.43758         4.94006
     2016.08487        -5.78037         4.82853
     2016.08761        -7.73316         4.82853
     2016.09034        -7.88995         4.84003
     2016.09314        -1.21173         4.93209
     2016.09542       -12.29656         5.68890
     2016.10483        -5.76083         7.43797
     2016.10677        -6.37768         4.76125
     2016.10951        -3.43247         4.81790
     2016.11225        -4.47226         4.83561
     2016.11498        -3.28904         4.87721
     2016.11772        -6.03383         4.80994
     2016.12046        -5.15962         4.80197
     2016.12320        -5.55541         4.77365
     2016.12594       -11.35020         4.76037
     2016.12867         1.80902         4.77630
     2016.13141         5.63823         4.80905
     2016.13415         0.72844         5.55258
     2016.13689        -2.63035         4.74267
     2016.13963       -10.57914         4.82499
     2016.14236       -12.89493         4.76656
     2016.14516       -10.65571         4.86570
     2016.14784        -7.60750         4.78692
     2016.15058        -8.82129         5.29058
     2016.15331        -9.73908         4.95245
     2016.15605        -5.42587         4.77453
     2016.15879       -11.77966         4.97104
     2016.16153        -8.19544         4.84092
     2016.16427        -0.57323         5.16931
     2016.16700        -6.61502         5.03034
     2016.16974         0.26719         4.78515
     2016.17248        -7.79460         4.91439
     2016.17527         2.03862         4.87455
     2016.17796         0.08883         4.77984
     2016.18069         2.98304         4.89491
     2016.18343        -7.86575         4.99316
     2016.18617        -0.00054         4.78250
     2016.18891         5.41367         4.77807
     2016.19164        -2.60912         4.68159
     2016.19438         4.49010         4.80640
     2016.19712         3.37731         4.74001
     2016.19986        -1.06048         4.81436
     2016.20260        -5.05027         4.79489
     2016.20533        -6.50806         4.87632
     2016.20807        -6.69485         4.87101
     2016.21081        -6.83263         4.83295
     2016.21355        -5.47242         4.77807
     2016.21629        -4.51921         4.79843
     2016.21902        -3.39700         4.69929
     2016.22176        -0.16379         4.69398
     2016.22450        -9.61857         4.77807
     2016.22724        -8.40636         4.69133
     2016.22997        -4.61515         4.66389
     2016.23271        -7.25194         4.67362
     2016.23545        -3.08473         4.73470
     2016.23819        -4.84352         4.70018
     2016.24093        -5.08430         4.74178
     2016.24366        -5.21909         4.65681
     2016.24640        -5.65488         4.66300
     2016.24914        -6.05067         4.67805
     2016.25188        -0.34846         4.68336
     2016.25462        -6.14225         4.71080
     2016.25735         0.05097         4.82764
     2016.26009       -11.31482         4.68159
     2016.26283       -14.35561         4.68867
     2016.26557        -7.14740         4.68425
     2016.26830        -4.23119         4.72231
     2016.27104        -0.87898         4.71965
     2016.27378         1.28024         4.67008
     2016.27652        -5.51255         4.67982
     2016.27926        -7.05634         4.80197
     2016.28142        -6.95617         6.12882
     2016.28815       -10.78565         6.71745
     2016.29021       -13.54649         4.69310
     2016.29295        -5.21228         4.75063
     2016.29568        -5.65307         4.73558
     2016.29842        -4.11786         4.81879
     2016.30116         3.16535         4.90022
     2016.30390        -9.41644         4.70283
     2016.30663        -1.81322         4.83649
     2016.30937        -2.47801         4.75506
     2016.31211        -1.73980         4.75063
     2016.31485        -7.65459         4.72054
     2016.31759       -11.97638         4.69929
     2016.32032        -5.57516         4.72142
     2016.32306       -18.87595         4.72408
     2016.32580        -3.83074         4.75152
     2016.32854       -14.94553         4.69044
     2016.33128        -4.88132         4.69044
     2016.33401        -3.80911         4.77276
     2016.33675        -6.88589         4.76125
     2016.33949        -4.31468         5.09407
     2016.34223        -4.30947         4.76125
     2016.34496        -1.89526         4.82233
     2016.34770        -3.19805         4.80374
     2016.35044        -1.93184         4.90111
     2016.35324        -4.54162         4.77188
     2016.35592       -14.27741         4.69133
     2016.35865       -14.76220         4.67008
     2016.36133        -7.01799         4.84977
     2016.36413        -0.38778         4.84180
     2016.36687        -0.98657         4.79046
     2016.36961         0.84965         4.68956
     2016.37234        -0.67414         4.72054
     2016.37514         1.41807         4.73647
     2016.37782       -13.65772         4.67008
     2016.38056        -7.90251         4.79932
     2016.38329        -3.85730         4.66389
     2016.38603        -1.24408         4.70549
     2016.38877         5.96213         4.70991
     2016.39151        -2.97366         4.67539
     2016.39407        -9.40446         7.10338
     2016.40195        -8.25385         5.94559
     2016.41432       -20.52590         8.77632
     2016.41615       -14.09976         4.88075
     2016.41889        -1.56054         4.77453
     2016.42162         0.12967         4.70991
     2016.42436       -10.59912         4.70460
     2016.42710        -5.28791         4.77984
     2016.42984       -11.35370         4.76568
     2016.43258        -1.43448         4.69841
     2016.43531         0.14573         4.86659
     2016.43805        -3.11806         4.70637
     2016.44079        -2.45885         4.75329
     2016.44353       -10.15864         4.70814
     2016.44626       -10.84243         4.67539
     2016.44900        -9.88421         4.73116
     2016.45174        -1.20400         4.71788
     2016.45448        -0.39479         4.67805
     2016.45722        -1.36058         4.75860
     2016.45995        -0.60137         4.71257
     2016.46269         0.91284         4.75329
     2016.46543        -6.83294         4.66123
     2016.46822        -4.00273         4.84357
     2016.47096         1.10648         4.78515
     2016.47370        -5.15030         4.80109
     2016.47644         5.60591         4.88872
     2016.47918         6.18212         4.88518
     2016.48191        -4.28267         4.74532
     2016.48465        -7.88146         4.92147
     2016.48739        -2.00625         5.46584
     2016.49013        -6.35603         4.80463
     2016.49287        -0.46082         4.80020
     2016.49560        -0.05361         4.85242
     2016.49828        -7.94840         4.80640
     2016.50102        -2.23019         4.82941
     2016.50376        -3.65498         4.95953
     2016.50650       -10.25177         4.86659
     2016.50924         1.18344         4.82321
     2016.51197        -3.38335         4.74798
     2016.51477         3.07587         4.84977
     2016.51751        -1.33692         4.96927
     2016.52024        -6.05071         5.44991
     2016.52298        -0.70249         4.80286
     2016.52572        -0.59928         4.83295
     2016.52846         1.18793         4.90288
     2016.53120        -1.83986         4.73204
     2016.53393        -9.10865         4.77807
     2016.53667        -8.62444         4.85951
     2016.53941         2.47678         4.75860
     2016.54215         1.41699         4.74975
     2016.54488         4.24920         4.77542
     2016.54762        -4.10459         4.81790
     2016.55036        -4.87138         4.88695
     2016.55310        -2.35317         4.84357
     2016.55584         2.50805         4.86570
     2016.55852        -6.38575         5.07814
     2016.56131         2.62647         4.76037
     2016.56405         0.22968         4.78692
     2016.56679         3.00789         4.96838
     2016.56953        -6.68489         4.93563
     2016.57226        -1.05568         4.87278
     2016.57500         2.40253         4.97104
     2016.57774        -2.89226         4.88606
     2016.58048        -1.18605         4.74267
     2016.58321        -5.39284         4.87721
     2016.58567         3.14335         5.24189
     2016.58886       -10.23540         5.16666
     2016.59103        -4.96923         5.26668
