# ================= DQRFIT RESULTS ================
# INPUT FILE: series/SUMM.rad
# OUTPUT: LDETRENDED
# FILTER FUNCTION: f(t)
# f(t)=+line(t)+annual(t)
# line(t)=+P 1+P 2*t
# annual(t)=+P 3*sin(2*pi*t+P 4)
# heav(t)=(t<0?0:1)
# TOTAL OBSERVATIONS MTOT= 1158
# INITIAL TIME INTERVAL= 2009.4942 - 2006.3162 =  3.1780
# TOTAL OBSERVATIONS AFTER PREFILTER M= 1148
# TIME-SPAN= 2009.4942 - 2006.3162 =  3.1780
# OBSERVATIONS: USED M=  1148 REJECTED MTOT-M=    10 %USED=   99.1364
# N=  4 PARAMETERS
# MAXSIG= 175.00000
# MAXRES=  27.32695
# SCALE FACTOR FOR LENGTHS: SCL=  10.00000
# SCALE FACTOR FOR SIGMAS: SCLSIG=   1.00000
# CHI^2=   1443.928 DOF=  1144 CHI^2/DOF=   1.26217
# RMS=      8.911 SDEV=      8.915 MEAN=   -0.03657
#  P #       PARAMETER +-    SIGMA %error PARAMETER NAME
# P 1 =   1385009.85581 +-  586.042   0.04 YZERO                              
# P 2 =      -687.69672 +-    0.292   0.04 SLOPE                              
# P 3 =         2.88674 +-    0.373  12.93 ANNUAL AMPLITUDE                   
# P 4 =        -1.63348 +-    0.012   0.72 ANNUAL PHASE                       
#       T            LDETRENDED       SIG_OBS
     2006.31622        17.16267         8.57541
     2006.32169        14.03829         8.71135
     2006.32443        22.24011         8.32600
     2006.32717        17.54292         8.24848
     2006.32991        20.14573         8.36982
     2006.33264        13.78454         8.43498
     2006.33538        19.65835         8.49902
     2006.33812        15.45716         8.88661
     2006.34086        12.13997         8.53834
     2006.34360        10.15378         9.43823
     2006.34633        11.01159         9.33038
     2006.34907         3.62440         8.75629
     2006.35181         6.89821         9.23713
     2006.35455        15.55902         8.40352
     2006.35728        16.70883         9.55058
     2006.36002        14.13565         9.68989
     2006.36276        20.60346         9.22815
     2006.36550        12.75327         9.05626
     2006.36824        15.60108         8.61586
     2006.37097        15.30089         8.50126
     2006.37371        19.53770         9.06974
     2006.37645        21.90951         8.87538
     2006.37919        16.21632         9.43711
     2006.38193        14.96813         9.00121
     2006.38466        17.35894         9.29892
     2006.38740        16.06675         9.02929
     2006.39014        19.22256         8.69450
     2006.39288        23.43338         8.99671
     2006.39561        14.96019         8.86976
     2006.39835        16.12800         8.85291
     2006.40109        18.38781         8.59451
     2006.40383        18.04962         9.00795
     2006.40657        12.57843         8.77988
     2006.40930        12.45824         8.77876
     2006.41204        17.18306         8.98435
     2006.41478        22.08587         9.61686
     2006.41752        17.32668         9.43374
     2006.42026        15.15349         9.02480
     2006.42299        18.99430         8.83943
     2006.42573        19.79811         8.95739
     2006.42847        20.55392         9.37644
     2006.43121        19.05874        11.34026
     2006.43394        18.61155         9.87526
     2006.43668        19.78236         9.44947
     2006.43942        23.10017         9.15175
     2006.44216        29.95598         9.11692
     2006.44490        21.93979         8.56867
     2006.44763        24.11260         8.67091
     2006.45037        16.44141         9.04951
     2006.45311        23.61222        10.07412
     2006.45585        26.49403         9.34611
     2006.45859        19.49684         9.40565
     2006.46132        21.27765         9.29892
     2006.46406        20.80247         8.93492
     2006.46680        21.61528         8.88212
     2006.46954        21.22309         8.90234
     2006.47227        22.76790         8.92369
     2006.47501        21.69871         8.79449
     2006.47775        19.81952         8.82370
     2006.48049        15.95933         9.12366
     2006.48323        16.84414         9.03716
     2006.48596        20.74495         8.93492
     2006.48870        15.39376         9.83706
     2006.49144        20.03457         9.70674
     2006.49419        23.26719         9.33487
     2006.49692        20.69619         8.82819
     2006.49965        20.13201         8.72820
     2006.50239        13.61382         8.49115
     2006.50513        16.70963         8.89897
     2006.50787        21.49344         9.13827
     2006.51060        21.35725         8.94503
     2006.51334        14.09306         9.77864
     2006.51608        11.86687         8.66529
     2006.51882        18.65368         8.49677
     2006.52156        16.82049         8.68214
     2006.52429        19.32430         9.33150
     2006.52703         8.12112         8.98323
     2006.52977        11.95093         8.65518
     2006.53251         7.93574         8.83493
     2006.53525        13.74955         8.90346
     2006.53798        17.10836         8.72596
     2006.54072         7.97917         8.82482
     2006.54346         9.61499         8.44172
     2006.54620         8.74180         8.31140
     2006.54893        10.92461         8.33162
     2006.55167        14.84442         8.41588
     2006.55441        14.49023         8.42824
     2006.55715        18.36104         8.44284
     2006.55989        21.01285         8.64844
     2006.56262        15.90666         8.53497
     2006.56536        16.65447         8.39453
     2006.56810        16.31129         8.69338
     2006.57084        17.67910         9.31465
     2006.57357        11.95091         8.67203
     2006.57631         6.98972         8.43610
     2006.57905         7.20153         8.97874
     2006.58179         6.83834         9.02030
     2006.58453         5.99815         9.21916
     2006.58726        10.75196         8.83044
     2006.59000        14.86677         8.93942
     2006.59274        13.97558         8.77876
     2006.59548        17.17039         8.57654
     2006.59822        13.42920        10.74258
     2006.60095         9.07301        10.82347
     2006.60369         8.97283         9.49328
     2006.60643         6.93764         8.40240
     2006.60917         9.65945         8.81583
     2006.61190         4.02826         8.88886
     2006.61464         8.80707         8.36420
     2006.61738         7.19288         8.56642
     2006.62012         6.82569         8.59563
     2006.62286         8.57550         8.40914
     2006.62559         7.96231         8.45071
     2006.62833        17.80212         8.92032
     2006.63107        13.39893         8.96750
     2006.63381        11.94074         9.77527
     2006.63655        16.06955         9.74382
     2006.63928        11.54837         9.20568
     2006.64202        10.50818         8.68439
     2006.65297        11.36942         9.35847
     2006.65571         4.14523         9.61012
     2006.65845        -0.66095         9.55620
     2006.66119         7.37986         9.26634
     2006.66392         5.46267         9.36746
     2006.66666         9.34348         9.32926
     2006.66940         6.10129         9.63484
     2006.67214         3.28210         9.24837
     2006.67488         7.98091        11.44250
     2006.67761        -2.10027        10.36622
     2006.68035         7.72554        11.22904
     2006.68309        10.03435         9.96289
     2006.68583         8.58616         9.12142
     2006.68856         6.04597         8.76528
     2006.69130         6.67278         9.04951
     2006.69404         8.17859         9.02592
     2006.69678         8.97540         8.71809
     2006.69952         4.39821         9.01244
     2006.70225         9.45302         9.17759
     2006.70499         7.44283         8.71585
     2006.70773         3.70965         8.60462
     2006.71047         4.29246         8.88099
     2006.71321        -1.23173        10.09771
     2006.71594         1.55108         9.19669
     2006.71868        10.98489         8.57991
     2006.72142         9.78070         8.74056
     2006.72416         6.28751         8.87088
     2006.72689         1.38232         9.01806
     2006.72963         2.32813         9.71573
     2006.73237         0.92194         9.25062
     2006.73511         3.71175         9.08884
     2006.73785         0.37656         8.58328
     2006.74058         3.02837         8.63608
     2006.74332         1.84019         8.57878
     2006.74606         3.28400         9.41015
     2006.74880        -1.75719         9.86290
     2006.75154         7.81962         9.10793
     2006.75427         3.42043         9.13827
     2006.75701         3.20524         8.82482
     2006.75975         5.04205         8.78438
     2006.76249        -2.12114         8.60013
     2006.76522         1.81167         9.08434
     2006.76796         4.28948         8.99671
     2006.77070         4.02729         8.56979
     2006.77344        -2.72289         8.58665
     2006.77618        -2.08408         8.59339
     2006.77891        -0.26627         8.74843
     2006.78165         6.22454         9.05176
     2006.78439        -1.24665        10.22578
     2006.78713        -1.84084         9.39330
     2006.78987        -5.36002         9.76404
     2006.79534       -12.54240         8.60799
     2006.79808        -8.49959         8.54058
     2006.80082        -8.34178         9.82920
     2006.80355        -6.09297         9.89548
     2006.80629        -5.53216        10.06513
     2006.80903        -2.73235         8.79898
     2006.81177        -6.59153         8.80460
     2006.81451        -1.44172         9.19332
     2006.81724        -5.05091         9.15063
     2006.81998        -2.49710         8.86190
     2006.82272        -3.86329         9.34499
     2006.82545        -5.02902         9.91908
     2006.82820        -5.19067         9.33712
     2006.83093        -9.37786         9.24724
     2006.83367        -4.50305         9.03828
     2006.83641        -5.97824         9.12029
     2006.83915         1.96657         8.82482
     2006.84188        -4.88662         9.30454
     2006.84462         2.90419         9.26971
     2006.84736        -0.09699         8.66866
     2006.85010        -5.22418         8.82932
     2006.85284         5.54563         8.90571
     2006.85557         0.53144         9.37307
     2006.85831         0.82925        12.42778
     2006.86105        -0.72594        11.08299
     2006.86379        -2.35013         9.75056
     2006.86653        -8.65032         8.92144
     2006.86926       -11.38751         8.97761
     2006.87200       -13.40970         8.84280
     2006.87474       -10.99989         8.86302
     2006.87748        -2.09608         9.90672
     2006.88021        -3.38827         9.07872
     2006.88295        -0.35345         9.35510
     2006.88569        -9.66664         8.71922
     2006.88843        -4.98083         8.45520
     2006.89117        -6.28502         8.55182
     2006.89390       -11.56221        10.50103
     2006.89664       -17.45640        11.52451
     2006.89938        -8.01159         9.43823
     2006.90212       -12.56878        10.13815
     2006.90485       -11.00696         9.16074
     2006.90759       -13.09615         9.49104
     2006.91033       -15.17134         9.34049
     2006.91307       -11.10853         9.76629
     2006.91581        -7.17472         8.63608
     2006.91854        -9.56191         8.54283
     2006.92128       -12.39010         8.66304
     2006.92402        -6.05428         8.58103
     2006.92676       -10.14247         8.75966
     2006.92950         0.28034        10.48081
     2006.93223        -7.47585        11.41104
     2006.93497        -5.12304        11.14702
     2006.93771        -6.95123         9.12816
     2006.94045        -2.73442         9.66180
     2006.94318         1.51539         9.52474
     2006.94592         3.41020        10.25724
     2006.94866        -2.30199         9.08996
     2006.95138         0.02702        10.16062
     2006.95414         0.76790        10.10557
     2006.95687         2.89345         9.09221
     2006.95961        -7.58374         8.56755
     2006.96235         3.64107         9.00795
     2006.96509         2.45588        11.03131
     2006.96780        -1.23366        10.90660
     2006.97057         3.03077        10.43138
     2006.97330        -8.48669        10.43924
     2006.97604        -6.74588         9.41689
     2006.97878        -4.61907         9.79100
     2006.98151        -8.33526         9.43037
     2006.98425        -7.53045         8.68214
     2006.98699         1.93737         8.56642
     2006.98973        -2.19182         8.68102
     2006.99247        -1.59501         8.76865
     2006.99520         3.39380         8.78438
     2006.99794         5.86361         8.75180
     2007.00342         1.93123        10.21680
     2007.00616        11.27304        11.21219
     2007.00889         3.89585        10.28308
     2007.01163         9.76666         9.79550
     2007.01437         1.77947         8.71135
     2007.01711        -0.21671         8.64170
     2007.01984         4.40010         8.74618
     2007.02258         5.43791         8.92256
     2007.02532         5.94772         9.20006
     2007.02806         6.21453         9.18882
     2007.03080         3.37234         8.62934
     2007.03353        -1.87685         8.41139
     2007.03627         0.78197         8.49677
     2007.03901         2.08278         9.56631
     2007.04175        -2.12241         9.61686
     2007.04449        -8.65760        10.14489
     2007.04722        -4.65779         9.37981
     2007.04996        -8.12298         9.84156
     2007.05270        -4.78917         9.24500
     2007.05544       -13.24835         9.34049
     2007.05817       -13.01254         8.48441
     2007.06091        -8.70873         8.32263
     2007.06365        -8.44392         8.31477
     2007.06639        -7.95811         8.79898
     2007.06913        -8.41730         8.45745
     2007.07186        -5.76249         8.44509
     2007.07460         0.49732         8.49565
     2007.07734         4.72913         9.61799
     2007.08008        11.49094        10.37071
     2007.08281         2.77522        10.16175
     2007.08555         0.29756         9.40678
     2007.08829        -9.82463         8.91020
     2007.09103        -5.11481         8.52823
     2007.09377        -8.79400         8.41476
     2007.09650        -9.68019         8.77651
     2007.09924        -8.66438         9.21916
     2007.10198       -12.01857         9.89099
     2007.10472         1.87924         9.42925
     2007.10746        -5.38295         9.08771
     2007.11019       -11.31714         8.68326
     2007.11293        -8.86733         8.68439
     2007.11567        -6.33352         8.97986
     2007.11841         7.60329         9.76404
     2007.12115        -2.13790        10.29881
     2007.12388        -8.28309         9.70225
     2007.12662        -3.42027         8.77764
     2007.12936        -0.60346         9.58428
     2007.13210        -4.92865         8.79449
     2007.13483        -7.79584         8.48104
     2007.13757       -12.29503         8.40352
     2007.14031        -6.61622         8.42936
     2007.14305       -10.73741         8.44172
     2007.14579        -4.79160         8.67989
     2007.14852        -1.29679         8.59451
     2007.15126        -4.72897         8.72820
     2007.15400        -5.53116         8.52149
     2007.15674         4.42665         8.99446
     2007.15948         8.79546        11.06501
     2007.16221        10.83427        10.37745
     2007.16495         8.01308         8.69450
     2007.16769        -1.19610         8.72483
     2007.17043         2.59671         8.80685
     2007.17316         3.10952        10.07861
     2007.17590        -0.10767         9.52249
     2007.17864        -4.04286        10.21118
     2007.18138         0.24395         9.01132
     2007.18412        -0.29324         9.06187
     2007.18685        -3.97643         9.71685
     2007.18959        -1.72262         9.38768
     2007.19233        -1.34881         9.35510
     2007.19507         2.34601         9.98873
     2007.19780        -2.48018        10.11344
     2007.20054        -2.37637         9.53148
     2007.20328         0.97044         9.51912
     2007.20602         1.90825         8.76191
     2007.20876         3.84006         8.62372
     2007.21149        -6.18513         8.51250
     2007.21423        -4.51032         8.69450
     2007.21697         3.95149         8.67540
     2007.21971        -1.03670         8.64057
     2007.22245         3.99311         8.67091
     2007.22518         0.23892         8.72483
     2007.22792        -0.16927         9.01019
     2007.23066        -4.28345         8.70910
     2007.23340        -8.62764         9.04390
     2007.23613        -1.89983         9.09333
     2007.23887        -2.13002         8.45071
     2007.24161        -5.52221         8.60013
     2007.24435         1.68260         8.49789
     2007.24709         0.46141         9.67753
     2007.24982        -4.17578        10.86279
     2007.25256         1.99503         8.95964
     2007.25530        -3.98316         9.03940
     2007.25804        -6.36835         8.84954
     2007.26078        -6.90754         8.96076
     2007.26351        -6.08872         8.53497
     2007.26625        -2.34091         8.47655
     2007.26899         0.82790         8.39566
     2007.27173         3.53071         9.03940
     2007.27446         3.05852         8.40577
     2007.27720         5.44533         8.92369
     2007.27994         1.16014         8.38555
     2007.28268         1.89996         8.47205
     2007.28542        -0.37723         8.84055
     2007.28815        -2.35642         8.46531
     2007.29089        -6.23061         8.91133
     2007.29363        -7.88580         8.75854
     2007.29637        -2.39699         8.70573
     2007.30458        -8.55655         9.07423
     2007.30732       -11.75174         8.83269
     2007.31006       -12.23393         8.63720
     2007.31279        -4.86012         8.53834
     2007.31553        -5.81831         9.03716
     2007.31827        -3.21750         9.24500
     2007.32101        -8.69369        10.00334
     2007.32375       -14.40388         9.74943
     2007.32648        -7.12207         9.24275
     2007.32922        -1.15326         8.95851
     2007.33196        -5.42845         8.84617
     2007.33470        -8.23463         9.11018
     2007.33744        -4.76882         8.66080
     2007.34017        -3.41001         8.43947
     2007.34291        -5.71420         8.47093
     2007.34565        -7.14839         8.75292
     2007.34839        -7.44858         9.64046
     2007.35112        -1.69877         8.84617
     2007.35386        -1.17396         9.01019
     2007.35660        -5.14515         8.92818
     2007.35934        -6.60034         8.51250
     2007.36208        -6.64153         8.43947
     2007.36481        -3.60072         8.86414
     2007.36755         8.46809         9.01019
     2007.37029        -5.30109         8.56530
     2007.37303         4.72872         9.05176
     2007.37577         3.43953         9.63147
     2007.37850         5.63834         9.08322
     2007.38124        -4.53385         9.33150
     2007.38398        -2.72604         8.56418
     2007.38672        -2.01323         8.94953
     2007.38945        -0.52242         9.08884
     2007.39219        -3.39361        10.01457
     2007.39493        -7.01380         9.64832
     2007.39767        -6.93498        10.36846
     2007.40041        -0.97017         9.57193
     2007.40314        -3.84936         8.51924
     2007.40588        -7.00555         8.38105
     2007.40862        -4.55074         8.53609
     2007.41136        -5.71593         8.34173
     2007.41410        -6.46811         8.44284
     2007.41683        -7.61430         8.88774
     2007.41957        -3.12849         8.46307
     2007.42231        -5.75068         8.93717
     2007.42505        -7.29387         8.73831
     2007.42778        -3.33806         8.42374
     2007.43052        -1.48325         8.47655
     2007.43326        -6.99344         8.57092
     2007.43600        -9.05563         8.98997
     2007.43874        -8.11981         8.61473
     2007.44147       -10.70600         8.73045
     2007.44421        -5.52819         8.71697
     2007.44695        -0.26638         8.74506
     2007.44969        -4.28357         9.31128
     2007.45243        -2.99876         8.84841
     2007.45516       -11.39095         8.69113
     2007.45790        -6.03614         8.56193
     2007.46064       -13.71433         8.83269
     2007.46338       -10.41552         8.51137
     2007.46611        -7.73071         8.41925
     2007.47159        -7.80409         9.18545
     2007.47433        -9.63627         8.70124
     2007.47707        -9.68546         9.31241
     2007.47980        -8.86265         8.47992
     2007.48254       -13.56984         8.43723
     2007.48528       -13.46303         8.53160
     2007.48802        -6.39722         8.54508
     2007.49076        -3.05241         8.48891
     2007.49349        -5.53360         8.42936
     2007.49623        -5.19779         8.57991
     2007.49897        -4.17298         8.37993
     2007.50171        -8.86917         8.69675
     2007.50444        -9.26536         9.39667
     2007.50718       -11.13754         8.55070
     2007.50992        -9.75973         8.87762
     2007.51266        -8.63992         8.64282
     2007.51540        -6.73711         8.57429
     2007.51813        -7.70930         8.45745
     2007.52087       -13.39549         8.45520
     2007.52361        -7.89968         9.06637
     2007.52635       -13.33787         8.70798
     2007.52908       -12.65005         8.40352
     2007.53182        -6.87124         9.23376
     2007.53456        -7.00543         9.30791
     2007.53730        -8.58062         8.61810
     2007.54004       -12.63581         8.47430
     2007.54277        -6.93600         8.31702
     2007.54551       -10.10819         8.35858
     2007.54825       -13.03937         8.76640
     2007.55099       -16.41556         8.62822
     2007.55373        -9.16775         8.39341
     2007.55646       -15.36294         8.41588
     2007.55920       -11.62313         8.33724
     2007.56194        -6.20832         8.39566
     2007.56468        -3.18751         8.55968
     2007.56741        -6.79870         8.72596
     2007.57015        -7.68889         8.48891
     2007.57289        -9.65108         9.03154
     2007.57563        -7.50427         8.97087
     2007.57837        -4.62345         8.44734
     2007.58110        -9.81164        10.11231
     2007.58384        -4.55383         9.26073
     2007.58658       -17.22102         8.51475
     2007.58932       -13.70521         8.30241
     2007.59206        -8.19840         8.40914
     2007.59479        -5.51159         9.48542
     2007.59753       -13.55378         9.64046
     2007.60027       -13.57997         9.04053
     2007.60301        -7.23016         8.45295
     2007.60574       -12.65335         8.91695
     2007.60848        -9.99654         9.87976
     2007.61122        -8.27172         9.22815
     2007.61396       -18.44591         8.38442
     2007.61670       -16.15710         9.27870
     2007.61943       -14.97429         9.34723
     2007.62217        -8.65048         8.99671
     2007.62491        -8.11467         8.87201
     2007.62765        -9.58886         9.08659
     2007.63039       -11.61305         9.11018
     2007.63312        -8.64524         8.62934
     2007.63586       -15.10543         8.90346
     2007.63860        -5.39362         9.04053
     2007.64134        -4.78680         8.54845
     2007.64407        -6.79199         8.85965
     2007.64681       -12.15318         9.23376
     2007.64955       -16.81537         9.62473
     2007.65229        -8.91456         9.50002
     2007.65503       -11.38775         9.41689
     2007.65776        -9.65494         8.87762
     2007.66050       -14.73412         8.81134
     2007.66324        -7.09931         9.07086
     2007.66598       -12.64950         9.19219
     2007.66872       -10.73969        11.73797
     2007.67145        -8.00188        10.17523
     2007.67419        -5.36907         9.05289
     2007.67693        -7.76826         9.79662
     2007.67967       -16.09345         9.40565
     2007.68240        -6.46963         9.85841
     2007.68514        -2.98482         9.52699
     2007.68788        -4.90201         9.04165
     2007.69062         0.44680         8.85403
     2007.69336        -3.85139         9.18433
     2007.69609       -10.26658         8.88998
     2007.69883       -11.15777         8.77539
     2007.70157        -7.00696         8.87425
     2007.70431        -7.31715         9.14164
     2007.70705       -11.39034         8.75180
     2007.70978        -0.70553         8.71472
     2007.71252        -1.61872         8.70910
     2007.71526        -8.76391         8.39790
     2007.71800        -8.29509         8.55744
     2007.72073        -4.14628         8.61698
     2007.72347        -6.36347         8.85853
     2007.72621        -9.31766         9.60451
     2007.72895        -9.13285         9.21691
     2007.73169        -6.51404         8.75741
     2007.73442        -3.62223         8.38892
     2007.73716        -2.82742         8.55744
     2007.73990        -2.52161         9.40902
     2007.74264        -2.71780        11.20657
     2007.74538        -3.62999         9.74943
     2007.74811        -2.66018         9.36633
     2007.75085        -5.00536         8.93604
     2007.75359       -11.82755         9.64270
     2007.75633       -11.79274         9.62473
     2007.75906       -14.31693         8.75180
     2007.76180       -14.47812         8.64394
     2007.76454       -18.00831         8.33724
     2007.76728       -15.99650         9.03491
     2007.77002       -18.29469         9.13939
     2007.77275       -16.06788         9.01132
     2007.77549       -12.05906         8.37207
     2007.77823        -9.95725         8.45295
     2007.78097        -8.09844         8.33836
     2007.78371       -11.62263         8.80797
     2007.78644        -4.94782         8.49115
     2007.78918       -10.90201         8.65181
     2007.79192        -8.03019         8.57541
     2007.79466        -9.06338         9.06861
     2007.79739        -7.36657         9.99435
     2007.80287        -8.23895         8.50463
     2007.80561        -8.07814         8.78550
     2007.81108        -6.18952         8.61698
     2007.81382        -4.72971         9.16074
     2007.81656        -7.68490        10.61450
     2007.81930        -5.76709         9.71798
     2007.82203        -9.44927         8.81583
     2007.82477        -9.11846         9.52474
     2007.82751       -14.35365         8.86077
     2007.83025       -11.45184         8.80123
     2007.83299       -16.22403         8.67989
     2007.83572       -14.36622         8.38218
     2007.83846       -11.63341         8.39678
     2007.84120       -11.04960         8.64507
     2007.84394       -21.27879         8.41476
     2007.84668       -12.87598         8.43161
     2007.84941       -15.06117         8.43273
     2007.85215       -14.71536         8.55968
     2007.85489       -14.64754         9.08996
     2007.85763       -22.69973         9.00682
     2007.86036       -17.73492         8.41588
     2007.86310       -15.33011         8.55968
     2007.86584       -13.84530         9.71461
     2007.86858       -14.91749         9.50789
     2007.87132        -7.04568         9.14726
     2007.87405       -14.32887         8.96525
     2007.87679       -15.31706         8.77427
     2007.87953       -13.60425         8.45632
     2007.88227       -11.16644         8.61361
     2007.88501       -13.80263         9.96514
     2007.88774        -9.02581        10.15276
     2007.89048        -9.46600         9.33375
     2007.89322       -12.01519         9.50339
     2007.89596       -16.86311         9.76966
     2007.89869       -18.40157         9.93368
     2007.90143       -12.93776         9.64945
     2007.90417       -13.96695         8.80235
     2007.90691        -9.20113         8.94279
     2007.90965       -10.28232         8.88998
     2007.91238       -14.87851         8.55407
     2007.91512       -16.21370         8.64394
     2007.91786       -12.03189         8.53721
     2007.92060       -12.80908         8.70236
     2007.92334        -7.90227         8.53609
     2007.92607        -1.22945         8.62260
     2007.92881        -8.70464         8.49677
     2007.93155       -10.80383         8.45408
     2007.93429       -14.85202         8.54733
     2007.93702       -14.51521         8.66978
     2007.93976       -18.51940         8.94279
     2007.94250       -15.01959         9.71236
     2007.94524       -16.54478         9.17759
     2007.94798       -15.27797         9.37420
     2007.95071       -11.48116         9.04727
     2007.95345       -12.05635         8.99896
     2007.95619       -15.82554         9.15063
     2007.95893        -9.80273        10.02918
     2007.96167       -11.85091        10.87515
     2007.96440        -8.74710         9.74045
     2007.96714        -8.38329         9.88088
     2007.96988        -5.75248         9.49553
     2007.97262        -9.25767         9.16523
     2007.97535        -8.89386         9.31802
     2007.97809        -5.56505         8.60912
     2007.98083        -8.33824         8.82033
     2007.98357        -4.73843         8.76528
     2007.98631        -6.88862         8.99671
     2007.98904       -12.92881         8.78438
     2007.99178       -16.67300         8.67540
     2007.99452        -4.99118         8.89560
     2007.99726        -8.13237         8.78887
     2008.00000        -8.55256         8.67428
     2008.00273       -11.22575         8.55519
     2008.00547       -18.19294         8.42374
     2008.00821       -15.74513         8.66978
     2008.01095        -6.36132         9.62922
     2008.01368       -11.93651        10.09546
     2008.01642        -9.19070         9.69663
     2008.01916        -9.77989         9.41352
     2008.02190       -13.05707         9.23826
     2008.02464        -5.92426         8.63496
     2008.02737        -7.87045         8.80572
     2008.03011       -10.59664         8.78213
     2008.03285       -10.71483         9.12816
     2008.03559        -7.64502        10.62237
     2008.03833        -9.20520        10.02805
     2008.04106        -8.23839        10.61113
     2008.04379        -4.82339        10.38644
     2008.04654        -5.48677         9.83032
     2008.04928        -8.86796        10.28645
     2008.05201        -9.40615         8.86302
     2008.05475        -6.23734         8.91358
     2008.05749        -8.43253         8.69450
     2008.06023        -7.12572         8.60462
     2008.06297         2.35909         9.21916
     2008.06570        -1.19809         9.43149
     2008.06844        -1.63828         9.29106
     2008.07118         2.08953         8.70798
     2008.07392         0.07134         8.98323
     2008.07666       -12.65685         9.31353
     2008.07939       -14.20004         8.92818
     2008.08213       -13.44223         8.70573
     2008.08487       -11.49142         9.48654
     2008.08760        -1.42588        10.10782
     2008.09034        -2.81180         9.72472
     2008.09308        -5.85899         9.68090
     2008.09582        -7.04718         9.36071
     2008.09856        -8.08136         9.07535
     2008.10130        -7.21255         9.08771
     2008.10403         6.03526         8.76303
     2008.10677         1.93107         8.66080
     2008.10951         2.01488         9.34162
     2008.11225        -5.38931        10.33139
     2008.11498        -8.18050        10.10670
     2008.11772       -15.54069         8.99671
     2008.12046         0.80512         9.19107
     2008.12320        -3.10707         9.76404
     2008.12594        -3.27826         8.80235
     2008.12867        -5.60245         8.67540
     2008.13141        -0.16464         9.45733
     2008.13415        -2.76082        10.15725
     2008.13689        -2.54301         8.82707
     2008.13963         1.60380         9.52249
     2008.14236         2.78261         8.57991
     2008.14510        -1.79558         8.76752
     2008.14784        -4.06277         8.51250
     2008.15058        -8.59296         8.56642
     2008.15331        -2.12814         8.47992
     2008.15605        -9.92533         8.78438
     2008.15879        -6.78352         9.34723
     2008.16153        -1.70771         9.97525
     2008.16426         2.00256        10.16961
     2008.16700        -5.16009         9.35734
     2008.16974       -11.37628         9.62248
     2008.17248       -10.53446         8.91020
     2008.17522        -4.99165         9.79437
     2008.17796        -2.18784         8.61698
     2008.18069        -7.28103         8.84055
     2008.18343        -6.89322         8.73831
     2008.18617        -1.03641        10.59203
     2008.18891         0.68340         9.88874
     2008.19164        -4.52979        10.68191
     2008.19438        -7.43798         9.53822
     2008.19712        -3.98817        10.03929
     2008.19986         1.39164         9.81797
     2008.20260        -6.69654         9.06974
     2008.20533        -9.59473         8.63945
     2008.20807       -16.82592         9.45846
     2008.21081        -7.82011         8.75404
     2008.21355        -1.90530         9.20568
     2008.21629        -8.30849         9.19781
     2008.21902       -12.77868         8.85403
     2008.22176       -12.30587         8.69113
     2008.22450       -10.65306         8.84280
     2008.22724        -8.54725         8.61361
     2008.22997        -2.18644         8.75067
     2008.23271        -3.59363         9.16298
     2008.23545        -6.51882        11.31667
     2008.23819        -2.70800        10.20444
     2008.24093        -3.39219         9.35285
     2008.24366       -10.55738         9.11243
     2008.24640        -5.40357         8.80011
     2008.24914        -4.13576         8.60238
     2008.25188        -6.14795         8.61361
     2008.25462        -9.38314         8.58777
     2008.25735       -17.76633         9.18995
     2008.26009       -10.56152         9.19781
     2008.26283       -11.31671         9.73258
     2008.26557        -7.56989         9.57642
     2008.26830        -7.56608         9.70787
     2008.27104        -5.02627         9.12591
     2008.27378       -19.75046         9.82021
     2008.27652       -11.39065         8.98548
     2008.27926       -10.80984         9.05513
     2008.28199        -8.46503         9.31016
     2008.28473        -6.22521         8.51699
     2008.28747        -2.94240         8.83943
     2008.29021        -5.31259         9.25286
     2008.29295         4.18022         8.74506
     2008.29568         2.63603         8.84392
     2008.29842         3.08384         9.24500
     2008.30116        -2.18135         8.71135
     2008.30390         0.69346         8.58328
     2008.30663        -0.43773         8.62147
     2008.30937        -6.04091         9.65619
     2008.31211         4.17390        10.58417
     2008.31485        -6.14629         9.06637
     2008.31759        -5.08448         9.79100
     2008.32032        -7.59267         9.02030
     2008.32306        -6.43686         9.07535
     2008.32580       -16.47705         9.11468
     2008.32854        -9.60424         8.90571
     2008.33128        -7.06143         8.83830
     2008.33401       -12.06662         8.89560
     2008.33675        -9.35381         9.51351
     2008.33949        -2.58200         9.68989
     2008.34223        -3.54518         9.07086
     2008.34496        -1.41137         9.30342
     2008.34770         3.45044         8.78101
     2008.35044        -0.87975         8.67203
     2008.35318        -0.89994         8.63159
     2008.35592        -8.02613         8.58665
     2008.35865        -3.73832         8.59901
     2008.36139         0.74249         8.51025
     2008.36413       -10.48570         8.69787
     2008.36687        -5.93989         8.64282
     2008.36961        -2.66008         8.53497
     2008.37234         0.26173         8.55182
     2008.37508         0.62954         8.51362
     2008.37782        -0.96764         8.35072
     2008.38056        -3.75783         8.95177
     2008.38329         1.19598         9.06974
     2008.38603        -7.01721         8.96750
     2008.38877         4.84460         9.74045
     2008.39151         1.81641         9.28994
     2008.39425        -3.28478         9.29218
     2008.39698        -4.50697         8.71360
     2008.39972        -3.19715         8.63046
     2008.40246        -4.98034         8.80909
     2008.40520        -6.33953         9.50564
     2008.40794        -1.44572         8.68439
     2008.41067        -1.12291         9.22702
     2008.41341         1.98390         9.72921
     2008.41615        -2.91928         9.28881
     2008.41889        -2.64547         8.90796
     2008.42162        -4.77966         9.02592
     2008.42436         1.59715         8.45857
     2008.42710        -7.51004         8.55856
     2008.42984        -3.68923         8.90796
     2008.43258        -4.72142         9.60451
     2008.43531         0.52439         9.10456
     2008.43805        -3.61980         8.77988
     2008.44079        -8.67499         9.08996
     2008.44353         0.05482         8.49789
     2008.44626        -6.31636         8.92256
     2008.44900        -3.81955         8.55407
     2008.45174        -1.71674         9.15624
     2008.45448        -3.79593         9.71573
     2008.45722        -7.05212         9.24724
     2008.45995        -6.40731         8.96188
     2008.46269        -4.43250         8.97761
     2008.46543        -2.81069         9.37195
     2008.46817        -2.99188         8.68664
     2008.47091        -7.25607         8.58889
     2008.47364        -3.71926         8.45857
     2008.47638         0.23255         8.46194
     2008.47912       -11.08464         8.71248
     2008.48186        -8.97382         9.46183
     2008.48459        -7.37001         9.50002
     2008.48733        -9.28320         9.36409
     2008.49007        -6.60539         9.00570
     2008.49281        -8.62758         8.97087
     2008.49555         0.59123         8.61136
     2008.49828         2.54604         8.46756
     2008.50102        -3.96515         8.54733
     2008.50376        -2.38234         8.50913
     2008.50650        -6.51053         8.55968
     2008.50924        -4.14972         8.71697
     2008.51197        -4.09590         8.59339
     2008.51471        -3.21609         8.46981
     2008.51745         0.34672         8.48216
     2008.52019         2.24653         8.68888
     2008.52292         3.24734         8.79112
     2008.52566         2.50915         8.89448
     2008.52840         0.78096         9.55283
     2008.53114        12.92378         9.33712
     2008.53388         6.43659         9.29218
     2008.53661         5.39340         8.88324
     2008.53935         5.97521         9.04053
     2008.54209         7.95402         8.71472
     2008.54483        -0.90817         8.67315
     2008.54757        -0.86136         8.78438
     2008.55030         4.30546         8.56305
     2008.55304         6.06827         8.85853
     2008.55578         1.74208         9.28320
     2008.55852         5.26289        10.09321
     2008.56125         4.63670         8.99334
     2008.56399        10.98151         8.77651
     2008.56673        -0.33568         9.61349
     2008.56947         0.77813         8.85178
     2008.57221         0.64594         9.01918
     2008.57494        -0.97525         8.58440
     2008.57768        -5.77044         8.77539
     2008.58042         0.09537         8.54058
     2008.58316        -1.86282         8.75854
     2008.58590        -2.60500         8.40577
     2008.58863        -3.99419         8.64394
     2008.59137         6.52562         8.51924
     2008.59411         1.87043         8.51025
     2008.59685        -4.80376         8.63271
     2008.59958         2.47305         9.07311
     2008.60232         4.14586         8.70012
     2008.60506         5.35867         8.97424
     2008.60780         9.18448         9.20680
     2008.61054         6.05629         8.94953
     2008.61327         0.74710         9.18995
     2008.61601         9.68991         8.61136
     2008.61875         6.06872         8.70349
     2008.62149         9.21054         8.64282
     2008.62423         9.16735         8.57429
     2008.62696        12.23716         9.11243
     2008.62970         6.50397         9.79887
     2008.63244         4.73378         9.58541
     2008.63518         4.06859         8.66417
     2008.63791        16.10140         8.91695
     2008.64065        14.56221         8.63945
     2008.64339        16.64602         8.53946
     2008.64613        15.71084         8.68102
     2008.64887        11.06065         8.58215
     2008.65160         7.34346         8.49677
     2008.65434         1.48527         8.62822
     2008.65708         2.71408         8.93155
     2008.65982         3.46389         8.66754
     2008.66256         2.00171         8.73494
     2008.66529         2.94052         8.75517
     2008.66803         4.70033         8.79224
     2008.67077         4.35414         8.67315
     2008.67351        11.24995         8.99109
     2008.67624        11.33476        10.87627
     2008.67898        11.96157         8.86751
     2008.68172        14.92238         8.78662
     2008.68446        16.91719         9.09108
     2008.68720        10.20000         9.65057
     2008.68993         8.94082         8.82482
     2008.69267         8.39463         8.64731
     2008.69541         5.30044         8.65743
     2008.69815        10.25425         8.78550
     2008.70089         8.68006         8.68776
     2008.70362         5.05287         8.77651
     2008.70636         5.23868         9.53036
     2008.70910        15.90649         9.70112
     2008.71184        11.87830         8.99784
     2008.71457        13.33211         9.06974
     2008.71731        13.35992         8.72708
     2008.72005        11.01773         8.54508
     2008.72279         7.59154         8.78101
     2008.72553         3.35636         8.62147
     2008.72826         7.17017         8.66080
     2008.73100         3.75798         8.60013
     2008.73374         5.07179         8.62597
     2008.73648         9.02260         8.56867
     2008.73921        10.49041         8.53384
     2008.74469         7.13403         8.58440
     2008.74743         5.44984         8.66080
     2008.75017         1.11765         9.09333
     2008.75290        -3.29354        10.98075
     2008.75564         1.40427        10.29544
     2008.75838         6.51909         9.22927
     2008.76112         9.22790         8.74618
     2008.76386         6.24071         8.57541
     2008.76659         1.93452         8.61361
     2008.76933         5.48633         8.69113
     2008.77207         9.14214         8.39453
     2008.77481         6.85795         8.43161
     2008.77754         4.73577         9.00008
     2008.78028         8.27558         9.39891
     2008.78302        14.46439         9.17197
     2008.78576        12.89920         9.26297
     2008.78850        10.10501         9.30454
     2008.79123        14.01082         9.21803
     2008.79397         8.49063         8.49340
     2008.79671         9.79845         8.38667
     2008.79945         6.67026         8.68439
     2008.80219        17.05707         8.48554
     2008.80492        17.89788         8.59563
     2008.80766        11.79569         8.77202
     2008.81040         7.43250         8.49452
     2008.81314        10.93231         8.39004
     2008.81587        15.59912         8.36645
     2008.81861        10.62393         8.53160
     2008.82135         3.91974         8.40802
     2008.82409         8.46755         8.95514
     2008.82683        -1.15664         9.16748
     2008.82956         3.79118         9.43374
     2008.83230         9.10199         8.95851
     2008.83504         9.96980         8.38667
     2008.83778        11.32961         8.46981
     2008.84052        11.43842         8.54845
     2008.84325        14.56723         8.52935
     2008.84599         9.99204         8.45632
     2008.84873         9.75085         8.42374
     2008.85147         5.34666         8.73045
     2008.85420         6.96647         9.80448
     2008.85694         8.81328         9.52811
     2008.85968         5.52109         8.68551
     2008.86242         4.61290         8.46082
     2008.86516         9.66272         8.68776
     2008.86789        10.23653         8.51250
     2008.87063        10.39934         8.66192
     2008.87337         3.15615         8.60013
     2008.87611         8.59296         8.77090
     2008.87885         3.59877         8.44284
     2008.88158         5.60758         8.59339
     2008.88432        10.69639         8.43049
     2008.88706         6.83220         8.59114
     2008.88980        -3.39898         8.60462
     2008.89253         6.57483         8.55182
     2008.89527         3.14264         8.72933
     2008.89801         8.70445         8.68214
     2008.90075         4.81726         9.70000
     2008.90349         7.34907         9.49441
     2008.90622        -0.87512         8.92144
     2008.90896         4.35770         8.90459
     2008.91170         7.11851         8.75741
     2008.91444         3.37532         8.58889
     2008.91718         4.04113         8.47542
     2008.91991         6.39794         8.52935
     2008.92265         3.70875         8.77202
     2008.92539         8.06656         9.09333
     2008.92813         8.79337         8.86864
     2008.93086        11.72418        10.29431
     2008.93360         7.18100         9.75056
     2008.93634         5.74481         8.86976
     2008.93908         4.70162         8.71023
     2008.94182        12.79743         8.54283
     2008.94455        10.00124         8.67989
     2008.94729         6.61505         8.81471
     2008.95003         7.97186         8.45408
     2008.95277         4.55467         8.51699
     2008.95551         9.68448         8.51475
     2008.95824        11.87529         8.52486
     2008.96098        13.82210         9.13827
     2008.96372        11.71191         8.36982
     2008.96646         9.78472         9.07760
     2008.96919         7.41954         8.43610
     2008.97193        -1.91565         8.28893
     2008.97467        -2.50184         8.70461
     2008.97741        12.66597         8.86864
     2008.98015        20.59005         9.00008
     2008.98288        16.45359         8.60687
     2008.98562         3.70540         8.35184
     2008.98836         5.18121         8.67091
     2008.99110         4.31602         8.40465
     2008.99384         4.76083         8.35746
     2008.99657        -1.45436         8.52935
     2008.99931         2.85845         9.07760
     2009.00479        -1.58392         9.11018
     2009.00752         7.60789         9.50115
     2009.01026         8.01470         8.76640
     2009.01300         4.91051         8.79112
     2009.01574         9.88032         8.76303
     2009.01848        12.04213         8.45520
     2009.02121        15.92094         8.75741
     2009.02395        12.04576         8.78662
     2009.02669         9.16757         8.88998
     2009.02943        12.38638         8.62035
     2009.03216         9.76519         8.59226
     2009.03490         1.08500         9.16748
     2009.03764         7.18881         9.13939
     2009.04038         1.53863         9.32364
     2009.04312        10.19844         8.57991
     2009.04585         7.99725         8.79112
     2009.04859         1.86506         8.75180
     2009.05133         2.75187         8.92593
     2009.05407        -0.40032         8.56081
     2009.05681         8.97549         8.60462
     2009.05954        12.86030         8.60912
     2009.06228        -2.83689         8.55744
     2009.06502         2.71692         8.62934
     2009.06776         3.77373         8.82370
     2009.07049         6.91354         9.71124
     2009.07323        11.00836         8.71360
     2009.07597         9.04617         8.48104
     2009.07871         6.16098         8.76415
     2009.08145         4.84179         8.42824
     2009.08418         4.91560         8.88324
     2009.08692        12.23641         8.61923
     2009.08966         6.55622         8.40465
     2009.09240         1.68203         8.55407
     2009.09514         4.57284         9.40341
     2009.09787         4.60165         8.76977
     2009.10061         7.49646         8.58777
     2009.10335         4.12627         8.53160
     2009.10609         1.63508         8.43835
     2009.10882        -1.27210         8.63945
     2009.11156        -2.50529         8.40577
     2009.11430        -0.50448         8.82257
     2009.11704        -1.49567         8.98772
     2009.11978         1.09214         8.50800
     2009.12251         0.95295         9.35285
     2009.12525         0.73976         9.73371
     2009.12799         2.66557         8.70910
     2009.13073         5.25138         8.52710
     2009.13347         4.03419         8.69562
     2009.13620        -4.56199         8.46868
     2009.13894         6.27282         8.57991
     2009.14168         3.29463         8.64507
     2009.14442         0.86644         8.54171
     2009.14715        -6.71775         9.03828
     2009.14989         1.00106         8.79898
     2009.15263         2.54587         8.62484
     2009.15537         5.27369         8.82595
     2009.15811         2.33750         9.10681
     2009.16084         6.41631         8.77988
     2009.16358         1.24812         8.47767
     2009.16632         3.39693         8.41026
     2009.16906         1.39274         9.34723
     2009.17180         2.60855         9.07985
     2009.17453        -2.26064         8.54845
     2009.17727        -0.61782         8.94391
     2009.18001        -5.93501         8.47318
     2009.18275         3.99380         8.99671
     2009.18548         3.05461         8.40577
     2009.18822        -0.42358         8.93380
     2009.19096         5.75223         8.47992
     2009.19370         4.62704         8.87201
     2009.19644        -0.08788         9.80224
     2009.19917         5.31466         9.57979
     2009.20191        -1.53853         8.61136
     2009.20465        -1.71872         8.66641
     2009.20739        -1.58991         8.78438
     2009.21013        -4.86410         8.56305
     2009.21286        -0.53728         8.47318
     2009.21560        -0.01547         8.65405
     2009.21834         3.33834         9.24387
     2009.22108        -4.47585         8.41363
     2009.22381         7.90696         8.59901
     2009.22655        10.93277         8.80909
     2009.22929         3.47658         9.06749
     2009.23203         6.14639         8.58777
     2009.23477         0.19320         8.76078
     2009.23750         4.36601         8.64507
     2009.24024         3.87482         8.60238
     2009.24298         4.67963         8.58889
     2009.24572        -4.11456         8.54845
     2009.24846        -3.34174         8.48778
     2009.25119         2.87607         9.07648
     2009.25393        -0.51712         8.85066
     2009.25667         1.32969         8.56979
     2009.25941         0.77650         8.51025
     2009.26214        -1.77469         8.54058
     2009.26488         1.73112         8.50913
     2009.26762         4.72193         8.60575
     2009.27036         7.01575         9.08097
     2009.27310        -0.19244         8.93492
     2009.27583         5.38637         9.91009
     2009.28131        -1.54101         8.68214
     2009.28405        -1.85120         8.78887
     2009.28679        -7.72038         8.78887
     2009.28952        -8.36557         8.78999
     2009.29226        -3.82676         8.76078
     2009.29500        -3.77295         8.94728
     2009.29774        -3.13114         8.54396
     2009.30047        -3.41533         8.70798
     2009.30321        -2.35452         8.75404
     2009.30595        -5.61671         8.54845
     2009.30869        -2.68990         8.52486
     2009.31143        -3.23709         8.81471
     2009.31416        -3.70928         8.96863
     2009.31690        12.10454         8.60013
     2009.31964         5.79835         8.85853
     2009.32238         8.17216         8.42037
     2009.32512        -3.30003         8.80572
     2009.32785        -1.78222         8.83943
     2009.33059         4.50259         8.50014
     2009.33333        -0.08160         8.43049
     2009.33607        -3.77579         8.38330
     2009.33880         0.52002         8.35634
     2009.34154         4.47483         8.40465
     2009.34428        -1.06536         8.78887
     2009.34702        -3.28655         9.21242
     2009.34976         3.13326         9.37532
     2009.35249        11.70908         8.84841
     2009.35523        14.27289         8.71360
     2009.35797        10.53170         9.85953
     2009.36071         3.33051         8.90459
     2009.36344         5.93232         8.54396
     2009.36618         4.73013         8.48104
     2009.36892        -6.10006         8.45520
     2009.37166         4.53275         8.48666
     2009.37440        -0.03344         8.42037
     2009.37713        -5.67063         8.51137
     2009.37987        -1.93682         8.55182
     2009.38261         9.10200         8.63720
     2009.38535        11.12081         8.36308
     2009.38809         3.62162         8.82707
     2009.39082         1.24143         8.59563
     2009.39356         8.13924         8.41700
     2009.39630        11.00705         8.46419
     2009.39904        11.36086         8.31702
     2009.40177         9.81868         8.44060
     2009.40451         9.99149         8.96525
     2009.40725         4.39530         8.83044
     2009.40999        -0.43689         8.57204
     2009.41273         4.38092         8.59563
     2009.41546         4.90773         8.48778
     2009.41820        10.21254         8.40689
     2009.42094         1.35536         8.55968
     2009.42368        -1.63183         8.76752
     2009.42642         0.64398         9.09895
     2009.42915         4.72279         8.78662
     2009.43189         7.65260         8.33611
     2009.43463         5.45841         8.40240
     2009.43737         2.01022         8.46307
     2009.44010         3.42503         8.37881
     2009.44284         2.67284         8.40240
     2009.44558         8.93465         8.35184
     2009.44832         5.11246         8.48778
     2009.45106         2.25627         9.08884
     2009.45379         4.43708         8.41813
     2009.45653         7.63090         8.34960
     2009.45927        11.21571         8.33050
     2009.46201        11.00652         8.42150
     2009.46475         9.35333         8.38667
     2009.46748         9.74614         8.50688
     2009.47022        10.38995         8.51924
     2009.47296        11.96576         8.35409
     2009.47570         9.95157         8.35521
     2009.47843         6.14538         8.58328
     2009.48117         5.57419         8.87088
     2009.48391         4.34500         8.54058
     2009.48665         2.16781         8.65630
     2009.48939         5.95662         9.25062
     2009.49212        10.84444         8.86414
     2009.49422         6.71470        12.44126
