# ================= DQRFIT RESULTS ================
# INPUT FILE: series/SUPR.rad
# OUTPUT: LDETRENDED
# FILTER FUNCTION: f(t)
# f(t)=+line(t)
# line(t)=+P 1+P 2*t
# heav(t)=(t<0?0:1)
# TOTAL OBSERVATIONS MTOT=  481
# INITIAL TIME INTERVAL= 2019.4794 - 2006.6092 = 12.8702
# TOTAL OBSERVATIONS AFTER PREFILTER M=  478
# TIME-SPAN=    0.0000 -    0.0000 =  0.0000
# OBSERVATIONS: USED M=   478 REJECTED MTOT-M=     3 %USED=   99.3763
# N=  2 PARAMETERS
# MAXSIG= 175.00000
# MAXRES=  23.11711
# SCALE FACTOR FOR LENGTHS: SCL=  10.00000
# SCALE FACTOR FOR SIGMAS: SCLSIG=   1.00000
# CHI^2=    739.562 DOF=   476 CHI^2/DOF=   1.55370
# RMS=      7.076 SDEV=      7.083 MEAN=    0.09144
#  P #       PARAMETER +-    SIGMA %error PARAMETER NAME
# P 1 =      1033.61282 +-  232.114  22.46 YZERO                              
# P 2 =        -0.51107 +-    0.115  22.52 SLOPE                              
#       T            LDETRENDED       SIG_OBS
     2006.60918        -0.08131         7.18718
     2006.61191        -5.22992         7.16349
     2006.61465        -4.26452         7.08123
     2006.61739        -0.57112         7.13233
     2006.62013         2.81328         7.31307
     2006.62287         4.47468         7.17097
     2006.62560        -8.71692         7.21211
     2006.62834        -4.97352         7.19216
     2006.63108        -7.52212         7.05256
     2006.63382        -1.91772         7.13607
     2006.63656        -4.26332         7.16599
     2006.63929        -2.76792         7.19216
     2011.64956       -11.66633         7.19590
     2011.65230        -7.05893         7.31432
     2011.65504       -19.61754         7.11239
     2011.65777       -16.43614         7.16100
     2011.66051        -7.54474         7.32554
     2011.66325        -9.37334         7.24825
     2011.66599       -14.63994         7.21958
     2011.66872       -11.68554         7.14480
     2011.67146       -10.90214         7.00021
     2011.67420       -10.79974         7.00519
     2011.67694        -6.21334         6.93414
     2011.67968       -13.00894         7.01890
     2011.68241       -13.94054         7.10117
     2011.68515       -14.04214         7.09494
     2011.68789       -10.49574         7.18718
     2011.69063        -9.19235         7.14729
     2011.69337       -10.70295         7.12984
     2011.69610       -11.91155         7.14355
     2011.69884       -14.80915         7.06876
     2011.70158       -17.65175         7.07998
     2011.70432        -5.84235         7.13482
     2011.70705       -10.74495         7.36667
     2011.70979       -10.65455         7.14106
     2011.71253       -15.86215         7.02015
     2011.71527       -17.92675         7.12361
     2011.71801        -7.96435         7.26321
     2014.57632        -1.31056         7.14854
     2014.57906        -1.30516         7.08497
     2014.58180         4.84924         7.21834
     2014.58454         2.22164         7.13358
     2014.58727        -5.45096         7.40157
     2014.59001         0.56344         7.27568
     2014.59275         7.00584         7.31556
     2014.59549        -3.76376         7.31806
     2014.59823         3.27364         7.31556
     2014.60096        -0.76797         7.36168
     2014.60370         2.72843         7.41653
     2014.60644        -3.21817         7.31681
     2014.60918        -3.83477         7.41279
     2014.61191        -2.87937         7.56112
     2014.61465        -0.61297         7.40157
     2014.61739         9.42343         7.43149
     2014.62013        -1.62817         7.55613
     2014.62287         3.51523         7.22706
     2014.62560         5.41563         7.21585
     2014.62834        -1.56597         7.22956
     2014.63108         6.68843         7.23704
     2014.63382         6.72283         7.45766
     2014.63656         6.20322         7.31432
     2014.63929         0.52162         7.26944
     2014.64203        -0.75798         7.13233
     2014.64477        -0.60158         7.16474
     2014.64751         9.81382         7.33177
     2014.65024         3.64822         7.22831
     2014.65298         2.71962         7.12859
     2014.65572         6.45402         7.16474
     2014.65846         8.59842         7.17970
     2014.66120        -1.47518         7.16848
     2014.66393        13.33322         7.34797
     2014.66667         6.50362         7.15601
     2014.66941         3.30302         7.14604
     2014.67215         4.37241         7.20213
     2014.67488         1.61381         7.11862
     2014.67762        -1.02479         7.13732
     2014.68036         1.03561         7.20587
     2014.68310        -5.41999         7.21460
     2014.68584         1.38341         7.20961
     2014.68857         1.75681         7.16474
     2014.69131        -1.56379         7.11363
     2014.69405        -0.53539         7.14355
     2014.69679        -1.92699         7.14230
     2014.69953         4.71641         7.17845
     2014.70226         5.23481         7.20587
     2014.70500         1.55121         7.16723
     2014.70774         1.32260         7.31307
     2014.71048         7.57700         7.22582
     2014.71321        14.64640         7.23579
     2014.71595         2.85080         7.18344
     2014.71869         3.54320         7.08995
     2014.72143         0.95360         7.04009
     2014.72417         0.11900         7.11987
     2014.72690        -1.27560         7.15477
     2014.72964        -0.92120         7.19839
     2014.73238        -8.39380         7.31681
     2014.73512        -6.11140         7.11737
     2014.73786         2.10400         7.10491
     2014.74059        -3.21560         7.10740
     2014.74333         9.02279         7.27817
     2014.74607        -3.58281         7.21958
     2014.76213         1.00740         8.34017
     2014.78987         3.06358         7.06876
     2014.86660         5.78679         7.52248
     2014.86927        10.44016         7.44270
     2014.87201        21.38256         7.42401
     2014.87475         0.90596         7.18344
     2014.87749         0.62336         7.24701
     2014.88022         4.68476         7.18219
     2014.88296         2.94916         7.27568
     2014.88570         3.46955         7.43523
     2014.88844         1.54695         7.55863
     2014.89118        -7.98365         7.83036
     2014.89391         5.02675         7.42401
     2014.89665         8.51615         7.39285
     2014.89939        14.92355         7.51999
     2014.90213         1.49495         7.45517
     2014.90486        16.02735         7.24701
     2014.90760        15.38575         7.31681
     2014.91034        19.67615         7.31556
     2014.91308         9.16155         7.28066
     2014.91582         6.21395         7.24950
     2014.91855         6.85235         7.24202
     2014.92129        -3.60126         7.21211
     2014.92403         2.87914         7.20712
     2014.92677         1.07154         7.18593
     2014.92951        -5.12706         7.19092
     2014.93224        -8.69666         7.19715
     2014.93498        -3.78126         7.22457
     2014.93772        -5.36086         7.17596
     2014.94046        -6.97346         7.17347
     2014.95141        -9.34886         7.05630
     2014.96510         8.40013         7.28316
     2014.97331         9.93433         7.15228
     2014.97605        -8.94727         7.87523
     2014.97879        -0.49887         7.17596
     2014.98426        -0.91007         7.01516
     2014.98700         4.08333         6.99896
     2014.98974        17.31573         7.11239
     2015.00069        -0.09868         6.99023
     2015.00343        -1.98128         6.98400
     2015.00616        -9.96188         6.98649
     2015.00890         3.47252         7.23953
     2015.01164        -7.58808         7.09868
     2015.01438        -3.41668         7.09244
     2015.01712        -1.66028         7.09868
     2015.01985         2.73612         7.12485
     2015.02259         3.26652         7.26197
     2015.02533         4.65992         7.12361
     2015.02807         2.89431         7.07499
     2015.03081         4.06971         7.07001
     2015.03354        -3.69289         7.14355
     2015.03628         1.36651         7.10616
     2015.03902         3.66291         7.11114
     2015.04176         9.23131         7.22706
     2015.04449         3.00971         7.18593
     2015.04723        23.11711         7.35670
     2015.04997         8.20351         7.16225
     2015.05271        -0.82909         6.97528
     2015.05545        -0.41069         6.99647
     2015.05818         3.32871         6.99896
     2015.06092         2.42211         7.04383
     2015.06366         3.49950         7.20089
     2015.06640         1.19890         7.02389
     2015.06914        -2.59570         7.02015
     2015.07187        -1.29430         7.06378
     2015.07461        -0.67190         7.07749
     2015.07735        -3.55550         7.09120
     2015.08009        -3.75310         7.03760
     2015.08282         0.26530         6.99896
     2015.08556         6.75770         7.01018
     2015.08830         0.17810         7.13856
     2015.09104        21.64150         7.22582
     2015.09378         4.93090         7.22956
     2015.09651         9.62630         7.03261
     2015.76729         0.73911         6.98400
     2015.77003         3.07651         6.98774
     2015.77276         5.22290         7.02264
     2015.77550        11.50830         7.10865
     2015.77824         6.83070         6.92791
     2015.78098         4.79610         6.90423
     2015.78371         6.42050         6.96406
     2015.78645         7.21690         7.03760
     2015.78919         3.02730         6.96156
     2015.79193         4.46970         7.05879
     2015.79467        -2.03890         7.00644
     2015.79740         9.73850         6.98151
     2015.80014         3.04990         7.19092
     2015.80288         1.63730         6.95907
     2015.80562         7.08570         7.00021
     2015.80836         2.87409         6.96655
     2015.81109         1.11649         7.00644
     2015.81383         7.15489         7.02887
     2015.81657        17.97829         7.31058
     2015.81931         7.69769         7.02140
     2015.82204         2.93809         6.98525
     2015.82478         4.06149         6.96032
     2015.82752         6.06589         7.04259
     2015.83026         7.61429         7.14230
     2015.83300        14.77169         7.13856
     2015.83573        -2.37091         7.06502
     2015.83847         1.34749         7.07250
     2015.84121         3.95189         7.08247
     2015.84395         3.90528         7.06751
     2015.84669         4.37368         7.13856
     2015.84942         5.72208         7.06627
     2015.85216        11.72748         7.20463
     2015.85490        -0.65512         7.15601
     2015.85764         6.26728         7.13233
     2015.86037         3.23368         7.13856
     2015.86311         3.04308         7.10740
     2015.86585         8.75448         7.10990
     2015.86859         7.26588         7.11239
     2015.87133         6.58928         7.14729
     2015.87406         5.06868         7.11987
     2015.87680         5.84908         7.20089
     2015.87954        17.45347         7.33301
     2015.88228        17.19187         7.22208
     2015.88502         6.41627         7.20837
     2015.88775         2.61867         7.14355
     2015.89049         9.33107         7.08995
     2015.89323        10.53447         7.13856
     2015.89597        18.09887         7.27692
     2015.89870         9.45727         7.07375
     2015.90144         5.44967         7.09120
     2015.90418         0.87407         7.10616
     2015.91513         0.48166         7.08995
     2015.91787         5.37606         7.08746
     2015.92061         6.10346         7.21460
     2015.92334        10.52486         8.18560
     2015.94251        10.90166         8.00237
     2018.62560        -3.26110         6.94411
     2018.62834        -2.38170         6.82819
     2018.63108         3.28770         6.84564
     2018.63382        -2.42890         7.03760
     2018.63656        -1.62250         6.75465
     2018.63929        -1.27010         7.07749
     2018.64203         4.16530         7.07499
     2018.64477         1.30870         6.86185
     2018.64751         1.10910         6.82695
     2018.65024         6.29649         6.96156
     2018.65298         8.53589         6.87057
     2018.65572         2.22329         6.73346
     2018.65846         1.60369         6.83941
     2018.66120         3.13809         6.86309
     2018.66393         2.46449         6.90797
     2018.66667         1.18489         6.76961
     2018.66941        -0.03971         6.71975
     2018.67215        -2.59031         6.81947
     2018.67488        -0.29391         6.85935
     2018.67762        -0.94251         6.84564
     2018.68036        -6.71511         6.94661
     2018.68310        -5.83671         6.90797
     2018.68584         8.03968         6.90049
     2018.68857         3.45808         6.89425
     2018.69131         5.30748         6.87431
     2018.69405         8.88288         7.01890
     2018.69679         3.05228         6.80077
     2018.69953        -3.27432         6.80451
     2018.70226        -3.30792         6.97403
     2018.70500         2.08748         7.00519
     2018.70774         1.53388         6.82445
     2018.71048        -0.46372         6.85187
     2018.71321         0.12168         6.82695
     2018.71595         2.98808         6.80576
     2018.71869        -1.33452         6.81697
     2018.72143        -5.72613         6.79454
     2018.72417         3.28927         6.85437
     2018.72690         6.01367         6.93040
     2018.72964         0.91707         6.79578
     2018.73238        -3.73753         6.80077
     2018.73512        -2.61013         6.78955
     2018.73786         0.52927         6.82819
     2018.74059        -3.64533         6.85437
     2018.74333        -2.02793         6.94785
     2018.74607        -0.89753         6.78457
     2018.74881         0.20887         6.77833
     2018.75154        -4.92373         6.82695
     2018.75428         2.78667         6.83193
     2018.75702        -0.95294         7.02513
     2018.75976        -4.43054         6.81074
     2018.76250         3.30786         6.79703
     2018.76523         1.65926         7.06627
     2018.76797         4.62866         6.80451
     2018.77071         7.47706         6.98151
     2018.77345         3.54346         6.84315
     2018.77619         3.83286         6.78207
     2018.77892         6.64726         6.78581
     2018.78166         8.31766         6.96406
     2018.78440         4.61806         6.80576
     2018.78714         2.54746         6.83692
     2018.78987        -2.69814         6.93290
     2018.79261        -2.58175         6.74343
     2018.79535         5.62765         6.77085
     2018.79809         0.15505         6.76213
     2018.80083         1.06845         6.79952
     2018.80356         3.24385         6.75465
     2018.80630         5.55625         6.92292
     2018.80904         0.33465         6.82196
     2018.81178        -4.62895         7.23454
     2018.81452         2.84445         6.81573
     2018.81725        -4.77715         6.84315
     2018.81999        13.39625         6.86808
     2018.82273        10.12865         6.95409
     2018.82547        12.62705         7.01766
     2018.82820         2.11244         6.80825
     2018.83094        -0.32416         6.77210
     2018.83368        -3.54276         6.81199
     2018.83642         8.39964         7.01018
     2018.83916         5.91404         6.87306
     2018.84189        10.54644         7.01267
     2018.84463         9.72084         6.84315
     2018.84737         1.54124         6.75714
     2018.85011         4.87664         6.80451
     2018.85285         3.17704         6.78457
     2018.85558        -1.90256         6.82819
     2018.85832        -0.06816         6.84814
     2018.86106         3.75623         6.77584
     2018.86380         1.85863         6.91544
     2018.86653         5.88003         6.80949
     2018.86927        -4.20457         6.82570
     2018.87201         3.91783         6.88678
     2018.87475         5.28023         6.85561
     2018.87749         5.77763         6.88179
     2018.88022         3.04403         6.92417
     2018.88296         5.38843         6.93788
     2018.88570         5.66983         6.91794
     2018.88844         6.60623         7.04134
     2018.89118         9.23363         7.10491
     2018.89391         7.38603         7.14480
     2018.89665        13.73342         7.42775
     2018.90213         6.02422         6.83442
     2018.92677         9.33282         6.89301
     2018.92951        12.76122         6.91544
     2018.93224         4.43561         7.04134
     2018.93772         5.12641         6.92542
     2018.94319         7.42721         6.83816
     2018.94867         5.16201         6.78332
     2018.95141         8.03941         7.01641
     2018.97605        12.65000         6.90797
     2018.97879        17.45140         7.06378
     2018.98426         8.98420         6.99647
     2018.98974         3.60800         6.94536
     2018.99521        10.60980         7.26072
     2019.00069        -5.09640         6.88054
     2019.00343        -0.73501         6.90921
     2019.00616        -4.87461         6.86434
     2019.03081         1.45699         6.99397
     2019.03354        -6.71861         6.85811
     2019.03628        -5.95621         6.88179
     2019.03902         2.99718         6.86933
     2019.04176       -12.04342         6.86683
     2019.04449        -3.61202         6.95658
     2019.06914        -1.78342         6.98151
     2019.07187        -0.37202         6.98275
     2019.07461         0.13237         6.88678
     2019.07735         5.49877         6.88553
     2019.08009         6.51417         6.82570
     2019.08282         0.32557         7.02140
     2019.08556         0.49097         6.87680
     2019.08830       -10.90963         6.98275
     2019.11563        -2.86566         7.40282
     2019.13758         5.81056         6.88054
     2019.16222        -3.07585         7.03635
     2019.16496        -1.98445         6.85312
     2019.16770       -10.86005         6.82819
     2019.17044        -5.21865         6.79828
     2019.17317        -6.44225         6.89675
     2019.17591       -16.54985         7.05006
     2019.17865        -6.55745         6.92417
     2019.18139         0.93694         6.82695
     2019.18413       -11.18266         6.78581
     2019.18686        -4.37326         6.87306
     2019.18960        -5.54686         6.85561
     2019.19234        -3.19346         6.93414
     2019.19508        -3.90006         6.89550
     2019.19781        -7.84266         6.78581
     2019.20055        -7.87926         6.95783
     2019.20329        -8.05386         6.86808
     2019.20603        -5.51846         6.88304
     2019.20877        -7.58606         6.83442
     2019.21150        -6.61166         6.78083
     2019.21424        -5.10026         6.84066
     2019.21698        -7.96187         6.83193
     2019.21972        -4.03147         7.04134
     2019.22246        -6.91507         6.86434
     2019.22519       -15.89167         6.75216
     2019.22793         0.73373         6.77958
     2019.23067       -16.75287         6.84315
     2019.23341        -9.73247         6.96904
     2019.23614        -8.87807         6.87930
     2019.23888        -7.42867         6.74966
     2019.24162        -7.79527         6.92043
     2019.24436        -5.84387         7.07749
     2019.24710        -8.13547         6.84564
     2019.24983        -8.72207         6.83068
     2019.25257        -8.85368         6.90921
     2019.25531        -5.65628         6.82196
     2019.25805        -0.48888         6.83442
     2019.26079        18.22352         6.89924
     2019.26900       -15.76528         6.96281
     2019.27174        -4.08888         7.17222
     2019.27447       -10.22348         6.85437
     2019.27721        -4.63208         6.97403
     2019.27995         1.64332         6.80825
     2019.28269        11.07072         6.91544
     2019.28543        -0.95888         6.85811
     2019.28816        -8.28049         6.90672
     2019.29090        -3.48809         6.83692
     2019.29364        -6.75569         6.77833
     2019.29638        -2.13229         6.95159
     2019.29911        -3.46389         6.83941
     2019.30185        -3.80749         6.82819
     2019.30459        -9.65809         6.80451
     2019.30733        -8.81269         6.79329
     2019.31007        -3.67029         6.93165
     2019.31280        -5.92089         6.95035
     2019.31554         2.12351         6.90423
     2019.31828        -5.80309         6.79329
     2019.32102         0.57331         6.81947
     2019.32376       -11.53030         6.76088
     2019.32649        -6.38790         6.81573
     2019.32923        -8.05250         6.79703
     2019.33197        -7.21410         7.01766
     2019.33471        -3.28870         6.95783
     2019.33744        -1.32330         6.85811
     2019.34018        -7.56390         6.81448
     2019.34292        -2.74350         6.78955
     2019.34566        -9.49910         6.93290
     2019.34840        -5.79370         6.94411
     2019.35113        -5.91230         6.81323
     2019.35387        -5.97790         6.78706
     2019.35661        -2.73050         6.75091
     2019.35935        -5.06711         6.83941
     2019.36209        -4.20471         6.91669
     2019.36482        -1.99431         6.94661
     2019.36756        -4.52391         6.79578
     2019.37030         2.93549         6.97528
     2019.37304        -1.44711         6.81822
     2019.37577        -1.81471         6.99148
     2019.37851        -1.88831         6.86559
     2019.38125        -1.07491         6.80202
     2019.38399        -7.90751         6.86309
     2019.38673        -8.71911         6.80077
     2019.38946        -5.86871         6.85187
     2019.39220        -9.97631         6.84190
     2019.39494        -0.52192         6.88054
     2019.39768       -10.43152         6.85935
     2019.40042        -6.52712         6.83193
     2019.40315        -3.76072         6.84190
     2019.40589        -2.43132         6.86309
     2019.40863        -5.38292         6.90672
     2019.41137        -9.77852         6.95907
     2019.41410        -6.27312         6.93788
     2019.41684        -8.85172         6.90797
     2019.41958        -2.98232         6.95533
     2019.42232        -6.71392         6.86060
     2019.42506        -0.82952         6.91046
     2019.42779         4.70588         7.28689
     2019.43053        -0.40973         6.88553
     2019.43327        -6.95633         6.87431
     2019.43601        -7.74293         6.89924
     2019.43875       -11.89853         7.00145
     2019.44148       -11.14813         6.98525
     2019.44422        -7.10273         7.01641
     2019.44696        -6.08933         6.95783
     2019.44970        -4.14993         7.02389
     2019.45243        -4.37353         7.02763
     2019.45517        -6.31313         7.03012
     2019.45791        -9.25673         7.10616
     2019.46065        -6.29333         7.08497
     2019.46339        -9.63693         7.25573
     2019.46612         7.51746         7.57982
     2019.46886        -1.94914         7.11987
     2019.47160        -3.74574         6.99522
     2019.47434        -3.14234         7.04383
     2019.47708        -0.52294         7.00519
     2019.47939        -5.37375         8.34266
