# ================= DQRFIT RESULTS ================
# INPUT FILE: series/SVIC.rad
# OUTPUT: LDETRENDED
# FILTER FUNCTION: f(t)
# f(t)=+line(t)+annual(t)
# line(t)=+P 1+P 2*t
# annual(t)=+P 3*sin(2*pi*t+P 4)
# heav(t)=(t<0?0:1)
# TOTAL OBSERVATIONS MTOT= 3352
# INITIAL TIME INTERVAL= 2022.7488 - 2011.6441 = 11.1047
# TOTAL OBSERVATIONS AFTER PREFILTER M= 3343
# TIME-SPAN= 2022.7488 - 2011.6441 = 11.1047
# OBSERVATIONS: USED M=  3343 REJECTED MTOT-M=     9 %USED=   99.7315
# N=  4 PARAMETERS
# MAXSIG= 175.00000
# MAXRES=  65.63878
# SCALE FACTOR FOR LENGTHS: SCL=  10.00000
# SCALE FACTOR FOR SIGMAS: SCLSIG=   1.00000
# CHI^2=   5624.244 DOF=  3339 CHI^2/DOF=   1.68441
# RMS=      7.728 SDEV=      7.727 MEAN=    0.17666
#  P #       PARAMETER +-    SIGMA %error PARAMETER NAME
# P 1 =      1855.50143 +-   77.419   4.17 YZERO                              
# P 2 =        -0.92043 +-    0.038   4.17 SLOPE                              
# P 3 =         4.98635 +-    0.175   3.51 ANNUAL AMPLITUDE                   
# P 4 =         2.73731 +-    0.046   1.67 ANNUAL PHASE                       
#       T            LDETRENDED       SIG_OBS
     2011.64407         1.72468         7.10183
     2011.64681        10.42320         7.00449
     2011.70705         5.24064         7.25108
     2011.70978         0.07016         7.06808
     2011.71252        -3.47932         7.02266
     2011.71526        -4.03280         7.22772
     2011.71800         0.85772         7.24199
     2011.72073         3.87824         6.97464
     2011.72347         3.58076         6.98372
     2011.72621         3.38528         6.92791
     2011.72895         8.14280         6.93310
     2011.73169         9.70532         7.19138
     2011.73442         4.06584         7.19267
     2011.73716         2.57636         7.22123
     2011.73990        -0.05912         6.98502
     2011.74264         6.19840         7.00708
     2011.74538         7.18292         7.06029
     2011.74811         9.96044         7.13297
     2011.75085         9.83796         7.16802
     2011.75359         7.64648         7.09144
     2011.75633        15.24800         7.02266
     2011.75906        21.25152         7.08495
     2011.76180         5.85904         7.08625
     2011.76454         1.16956         7.14985
     2011.86840         2.12516         7.74556
     2011.87132         1.16384         7.04083
     2011.87405        -0.55364         7.07327
     2011.87679        10.02388         7.09663
     2011.87953         3.57240         7.12000
     2011.88227         6.02992         7.07068
     2011.88501         7.90944         7.05640
     2011.88774        -2.92004         7.10312
     2011.89048         9.95848         7.06419
     2011.89322         7.88300         7.10961
     2011.89596        -0.81548         7.06808
     2011.89869         3.89904         7.16282
     2011.90143        -3.31244         7.04861
     2011.90417         0.06008         7.17450
     2011.90691         4.61860         7.03044
     2011.90958         3.08307         7.23550
     2011.91238         1.30564         7.30689
     2011.91512        -2.22184         7.19916
     2011.91786         0.36068         7.32895
     2011.92060        -5.86580         7.17061
     2011.92334        -6.06528         7.18229
     2011.92607        -3.94676         7.21344
     2011.92881        -2.12924         7.27574
     2011.93155         1.91628         7.23291
     2011.93429         0.82380         7.19267
     2011.93702         0.04932         7.05640
     2011.93976         5.88484         7.03823
     2011.94250         7.06936         7.16802
     2011.94524         4.23388         7.12778
     2011.94798         8.03240         7.05121
     2011.95071         3.12092         7.00189
     2011.95345        -1.70156         7.11091
     2011.95619         3.28396         7.25886
     2011.95893         2.12748         7.15504
     2011.96167         6.98600         7.19008
     2011.96440         2.75952         7.08885
     2011.96714        -0.63996         7.05900
     2011.96988         6.36356         7.10831
     2011.97262         0.12008         7.05251
     2011.97535        -0.27440         7.16672
     2011.97809        -3.92588         7.08495
     2011.98083         3.45364         6.93181
     2011.98631         5.70768         7.06419
     2011.98904        24.34520         7.23680
     2011.99178        18.07072         7.14595
     2011.99452        25.31224         7.09144
     2011.99726        10.47376         7.01487
     2012.00273         5.16880         7.06808
     2012.00547         4.71732         7.12129
     2012.00821         4.79784         7.08495
     2012.01095         9.28236         7.06419
     2012.01368         5.47788         6.97074
     2012.01642         7.22040         6.98891
     2012.01916         4.09992         6.99540
     2012.02190         8.30544         6.99670
     2012.02464         5.46396         6.98761
     2012.02737         1.79648         6.96815
     2012.03011         2.87000         6.93700
     2012.03285         0.94152         7.03823
     2012.03559         2.28904         7.03434
     2012.03833         5.63356         6.99281
     2012.04106         4.46508         6.97723
     2012.04380         6.95560         6.99281
     2012.04654        17.44812         7.08625
     2012.04928        22.71364         7.07717
     2012.05201        10.27916         7.07197
     2012.05475        28.42368         7.07197
     2012.05749        14.94820         7.03563
     2012.06023        11.45572         7.18229
     2012.06297         2.28924         7.08366
     2012.06570         9.53076         7.16412
     2012.06844         6.22628         7.17061
     2012.07118        -2.44120         7.02136
     2012.07392        -1.91668         6.98113
     2012.07666        -0.29016         7.08366
     2012.07939        12.70436         7.02006
     2012.08213         3.44088         7.07197
     2012.08487         4.85740         7.08106
     2012.08761        -0.49508         7.11740
     2012.09034        -3.09056         7.08366
     2012.09308         0.09496         7.04083
     2012.09582         0.31148         7.05510
     2012.09856         2.32200         7.06678
     2012.10130        -1.17548         7.21344
     2012.10403        -2.21196         7.17061
     2012.10677         0.78556         7.24589
     2012.10951         1.76808         7.26795
     2012.11225         1.79360         7.11610
     2012.11498         1.83312         7.20565
     2012.11772         0.20064         7.18489
     2012.12046         3.06116         7.15504
     2012.12320         2.18268         7.13816
     2012.12594        -4.57080         7.01746
     2012.12867        -2.36628         7.02785
     2012.13141         0.66224         7.07846
     2012.13415         2.62776         7.01746
     2012.13689        -6.83072         7.08106
     2012.13963        10.15280         7.16672
     2012.14236        10.69232         7.30559
     2012.14510         0.13484         7.12389
     2012.14784        -3.47264         7.06938
     2012.15058        -5.81012         7.09663
     2012.15331        -2.67360         7.07587
     2012.15605        -1.97808         7.15244
     2012.15879        -0.15756         7.19787
     2012.16153        -0.46704         7.07976
     2012.16427        -0.78252         7.16672
     2012.16700        -3.53800         7.17321
     2012.16974        -4.77048         7.08366
     2012.17248        -2.96196         7.06159
     2012.17522        -1.80244         7.15504
     2012.17796        -2.48192         7.21474
     2012.18069        -2.16040         7.07327
     2012.18343        -6.65788         7.12908
     2012.18617        -4.99036         7.09793
     2012.18891        -4.51484         7.16023
     2012.19164         3.32568         7.20176
     2012.19438         7.45920         7.12908
     2012.19712         1.20772         7.11221
     2012.19986        -4.17776         7.19397
     2012.20260         8.86876         7.15114
     2012.20533        10.22328         7.09663
     2012.20807         3.99580         6.91104
     2012.21081        -1.65868         6.86951
     2012.21355        -2.16116         6.88119
     2012.21629        -0.29164         6.90066
     2012.21902         7.28988         6.91234
     2012.22176        -1.61060         7.12778
     2012.22450        -7.42308         7.03693
     2012.22724        -2.66756         7.10312
     2012.22997        -0.78504         7.14465
     2012.23271        -0.21852         7.19267
     2012.23545         1.24700         6.94089
     2012.23819         5.06552         7.06289
     2012.24093         1.67004         6.90715
     2012.24366        15.10956         6.89028
     2012.24640         1.86308         7.16153
     2012.24914        -1.42740         7.16153
     2012.25188        -5.63288         7.04991
     2012.25462        -9.90636         7.09663
     2012.25735        -3.17884         7.06289
     2012.26009        -4.91732         7.12129
     2012.26283        -3.73380         7.04732
     2012.26557        -5.38928         7.07717
     2012.26830        -5.09076         7.07457
     2012.27104        -7.56224         7.33544
     2012.27378        -3.50972         7.09274
     2012.27652         3.92780         7.11091
     2012.27926         2.67432         7.25757
     2012.28199         0.96184         7.10961
     2012.28473        -0.29564         7.04472
     2012.28747        -4.76512         7.21474
     2012.29021         5.15740         7.09793
     2012.29295         1.68192         7.11221
     2012.30116        -3.57652         7.03693
     2012.30390       -16.43000         6.85913
     2012.30663        -7.74248         6.87081
     2012.30937       -11.90596         6.92402
     2012.31211        10.20256         7.30299
     2012.31485        -3.14992         7.20306
     2012.31759         4.72660         7.02006
     2012.32032        -1.98488         7.09014
     2012.32306        -4.88036         6.98502
     2012.32580        -8.06884         6.87989
     2012.32854        -5.81532         7.07197
     2012.33128        -1.06280         7.15374
     2012.33401        -3.89728         7.20046
     2012.33675        -0.68676         6.92272
     2012.33893        -6.43275         9.19006
     2012.34223       -14.45472         6.85913
     2012.34496       -12.69320         6.90715
     2012.34770        -5.22168         7.02395
     2012.35044        -3.46316         6.92142
     2012.35318        -3.55664         7.03953
     2012.35592        -4.29012         6.85523
     2012.35865        -8.98260         6.87860
     2012.36139        -6.82308         6.87340
     2012.36413        -7.21456         6.85653
     2012.36687        -8.58904         6.88379
     2012.36961        -5.91552         6.81370
     2012.37234        -0.96100         7.05900
     2012.37508        -1.81048         6.94868
     2012.37782        -5.30596         7.05510
     2012.38056        -7.52144         6.92662
     2012.38329        -5.94092         6.99670
     2012.38603        -5.85040         7.03174
     2012.38877         0.17812         7.33674
     2012.39151         1.04164         7.18359
     2012.39425        -0.99884         7.00968
     2012.39698        -7.78232         7.19138
     2012.39972        -5.64180         6.93700
     2012.40246        -3.87128         6.83447
     2012.40434       -13.34154        11.91814
     2012.40794        -6.51724         6.97334
     2012.41067        -7.80472         7.04212
     2012.41341        -7.51920         7.00319
     2012.41615        -5.16968         7.03044
     2012.41762         3.36968        28.30217
     2012.42162        -6.33464         6.98372
     2012.42436        11.89788         7.08755
     2012.42710        -4.39860         7.03434
     2012.42984        -3.07508         6.96425
     2012.43258       -10.07256         6.95387
     2012.43531        -7.57104         6.90715
     2012.43805        -8.16752         6.94219
     2012.44079       -13.87600         6.93959
     2012.44353       -13.13648         6.96036
     2012.44626        -7.55196         6.96685
     2012.44900       -11.35844         7.01227
     2012.45174        -7.19492         6.96425
     2012.45448         2.52760         7.00189
     2012.45722        -5.97188         7.01227
     2012.45995        -0.14936         7.10831
     2012.46269        -7.90784         6.96296
     2012.46543        -6.02332         6.97204
     2012.46817        -2.46280         6.96296
     2012.47091        -6.40128         6.97334
     2012.47364        -3.54976         7.03304
     2012.47638        -1.40724         7.04212
     2012.47912       -12.21272         6.99410
     2012.48186        -3.62420         6.95387
     2012.48459         3.12632         6.98242
     2012.49007        -0.90664         7.04212
     2012.49281         0.93688         6.95387
     2012.49555        -7.93760         6.95776
     2012.49828        -3.72708         7.03174
     2012.50102        -0.33956         6.98242
     2012.50376        -3.10304         7.01227
     2012.50650        -4.31052         6.92402
     2012.50924        -6.28600         7.07457
     2012.51197        -4.79948         7.08495
     2012.51471         0.60904         6.99540
     2012.51745         5.00856         7.08755
     2012.52019        -4.76292         7.19916
     2012.52292        -1.53440         6.97723
     2012.52566        -0.26788         6.92532
     2012.52840        -0.18836         7.04732
     2012.53114        -0.10984         7.06938
     2012.53388        -2.29632         7.12000
     2012.53661        -1.55780         7.02915
     2012.53935         2.42072         6.94089
     2012.54209         4.01124         6.95517
     2012.54483         8.46576         7.08625
     2012.54647       -11.41772        16.86035
     2012.55030        -2.21720         6.93959
     2012.55304        -4.01568         6.90455
     2012.55578        -1.30616         6.98632
     2012.55852        -4.99064         6.90715
     2012.56125        -2.16512         6.93830
     2012.56399        -1.82460         7.04342
     2012.56673        -0.19108         6.99151
     2012.56947         4.82244         6.97334
     2012.57221        -0.19304         7.02266
     2012.57484         0.67539         7.13168
     2012.57768        -3.05000         7.05510
     2012.58042         1.25052         6.96425
     2012.58316       -10.95296         6.99670
     2012.58590        -2.85044         7.02525
     2012.58863         1.04608         6.96036
     2012.59137         0.11760         6.96425
     2012.59389         4.48793         7.47431
     2012.59685        -3.33636         7.27444
     2012.59958         0.03216         7.09014
     2012.60232         0.57468         7.21733
     2012.60506         4.18020         6.99151
     2012.60780         1.49972         6.98502
     2012.61054         4.77024         6.97204
     2012.61327         5.47176         6.94998
     2012.61601         4.75928         6.96166
     2012.61875         5.94580         6.95647
     2012.62149         6.64432         6.92532
     2012.62423         6.71584         6.98372
     2012.62696         6.15036         7.08885
     2012.62970        -6.72412         7.12648
     2012.63244        -0.06160         6.99151
     2012.63518         5.88592         7.07068
     2012.63791         2.90944         7.03044
     2012.64065         3.79796         6.97074
     2012.64339         5.83148         6.95257
     2012.64613        10.57600         6.99021
     2012.64827         8.36098         9.16281
     2012.65160        13.22604         7.14855
     2012.65434        12.08856         7.56126
     2012.65708         9.61708         7.20565
     2012.65982         5.76260         7.20306
     2012.66256         4.66812         7.00319
     2012.66529         7.73264         6.99281
     2012.66803        -0.30784         7.07976
     2012.67077         4.18368         6.99151
     2012.67351         3.99520         7.02525
     2012.67624         7.48172         7.02006
     2012.67898         6.39724         6.92662
     2012.68172         4.77876         7.02395
     2012.68446         2.53128         6.98372
     2012.68720         6.82880         6.94479
     2012.68993         9.73032         6.98891
     2012.69267         1.56184         7.06289
     2012.69541         4.11536         6.95776
     2012.69815        -0.85012         7.12908
     2012.70089         2.15140         6.94219
     2012.70362        -0.62208         6.97853
     2012.70636         5.13844         7.00059
     2012.70910         0.33096         6.96555
     2012.71184         4.01448         6.94349
     2012.71457         4.40400         6.96296
     2012.71731         7.54352         6.94219
     2012.72005         6.32904         6.92013
     2012.72279         4.39256         7.01357
     2012.72553        10.05008         6.91883
     2012.72826        10.50960         7.17450
     2012.73100         3.76112         7.18229
     2012.73486         9.78167        17.64425
     2012.73648         3.84616         7.00449
     2012.73921         5.99968         7.09404
     2012.74195         4.83420         7.22642
     2012.74469         3.79972         7.04602
     2012.74743        11.06724         7.07717
     2012.75017        -0.50424         7.12129
     2012.75290         5.53928         7.24718
     2012.75564         2.49080         6.97334
     2012.75838         2.99632         7.09274
     2012.76112         4.86684         6.99670
     2012.76386         4.93636         7.05770
     2012.76659         5.97288         7.04861
     2012.76933         7.41240         6.99281
     2012.77207         8.19292         7.05121
     2012.77481         5.06144         6.88379
     2012.77754         3.11596         6.97464
     2012.78028         8.79648         7.02785
     2012.78302        14.46900         7.15633
     2012.78576         3.53252         7.05900
     2012.78850        23.14604         7.04212
     2012.79123        18.69356         7.22512
     2012.79397         3.69908         6.97723
     2012.79671         3.60160         7.30818
     2012.79945         3.28012         7.18099
     2012.80219        20.56364         7.04342
     2012.80492         3.66016         7.00059
     2012.80766         4.88968         7.00319
     2012.81040         5.57520         7.05251
     2012.81314        -1.99628         7.13946
     2012.81587        -4.72176         7.12648
     2012.81861        -2.00524         7.22382
     2012.82135        -7.42272         7.09534
     2012.82409        10.54480         7.39903
     2012.82683         3.69432         7.11221
     2012.82956        -2.47516         7.08885
     2012.83230         7.06436         7.13038
     2012.83504         7.95788         7.19138
     2012.83778         3.04340         7.08366
     2012.84052        11.07992         7.04991
     2012.84325         1.26744         7.18748
     2012.84599        -3.32204         7.25108
     2012.84873         1.09648         7.16282
     2013.42644        -5.51377         7.32376
     2013.42915         2.15772         7.24978
     2013.43189        -6.74876         7.27314
     2013.43463        -5.21624         7.07717
     2013.43737        -1.93572         7.16153
     2013.44410        -4.50452        27.76097
     2013.44558        -6.84416         7.37437
     2013.44832        -8.09164         7.10831
     2013.45106       -10.58412         7.06289
     2013.45379        -3.97460         7.13168
     2013.45653        -5.64808         7.31986
     2013.45927        -5.16856         7.19657
     2013.46201        -3.52904         7.14206
     2013.46475         5.30848         7.16412
     2013.46748        -6.02400         7.07457
     2013.47022        -3.63948         7.08755
     2013.47296        -6.45596         7.11091
     2013.47570         2.96556         7.08625
     2013.47843         5.63808         7.27055
     2013.48117         6.56560         7.13687
     2013.48391         1.13312         7.20695
     2013.48665         1.84364         7.18619
     2013.48939        -4.73184         7.19657
     2013.49212        -3.72832         7.18619
     2013.49486        -6.10480         7.24848
     2013.49760         0.31372         7.23940
     2013.50034        -0.35576         7.15633
     2013.50308        -2.71124         7.18489
     2013.50581        -2.29172         7.07976
     2013.50855        -1.95820         7.12648
     2013.51129        -0.74868         7.12000
     2013.51403         0.04084         7.15633
     2013.51676        -4.28964         7.18099
     2013.51950        -2.06512         7.21733
     2013.52224        -4.57860         7.27055
     2013.52498        -2.94908         7.32765
     2013.52772        -1.44256         7.15374
     2013.53045        -5.28304         7.15114
     2013.53319        -4.55352         7.10572
     2013.53593        -0.35400         7.19787
     2013.53867        -5.35048         7.19138
     2013.54141         0.62004         7.14985
     2013.54414        -1.66444         7.14855
     2013.54688        -5.11992         7.12648
     2013.54962         1.48360         7.20046
     2013.55236         4.83712         7.17450
     2013.55509        -7.26136         7.07327
     2013.55783         2.17816         7.09404
     2013.56057        -2.47832         7.26665
     2013.56331         0.61420         7.34582
     2013.56605         2.19072         7.27574
     2013.56878         1.43724         7.21604
     2013.57152         2.43876         7.20436
     2013.57426         4.79528         7.21863
     2013.57700        -0.65120         7.26535
     2013.57974         0.83332         7.28093
     2013.58247         8.20684         7.42629
     2013.58521         3.85536         7.32246
     2013.58795         2.90988         7.17321
     2013.59069         3.24040         7.14595
     2013.59342         5.91092         7.24589
     2013.59616         7.71544         7.28352
     2013.59890         8.17396         7.22642
     2013.60164         3.86248         7.27314
     2013.60438        -0.15600         7.29520
     2013.60711        -1.59948         7.25757
     2013.60985         5.52404         7.25108
     2013.61259         3.93856         7.20436
     2013.61533        12.87208         7.54309
     2013.61807         3.11860         7.41720
     2013.62080         1.51712         7.25886
     2013.62354         3.47364         7.23031
     2013.62628         4.44816         7.38476
     2013.62902        -1.11232         7.27963
     2013.63175         4.93520         7.20436
     2013.63449         7.53672         7.56775
     2013.63723         5.81224         7.27444
     2013.63997         9.15576         7.28742
     2013.64271         5.26028         7.21863
     2013.64544         7.51080         7.18229
     2013.64818         4.31532         7.26535
     2013.65092        14.97084         7.32635
     2013.65366         6.48736         7.16023
     2013.65639         8.05988         7.21863
     2013.65913        10.47240         7.32506
     2013.66187         5.43692         7.15763
     2013.66461         2.59344         7.07717
     2013.66735         8.99496         7.17970
     2013.67008        10.41648         7.20306
     2013.67282        12.11000         7.35491
     2013.67556        11.86252         7.26925
     2013.67830         7.45904         7.15114
     2013.68104         9.18856         7.14076
     2013.68377         7.18508         7.07068
     2013.68651         4.18960         7.11221
     2013.68925         2.95912         7.21084
     2013.69199         8.97064         7.08625
     2013.69472         9.74116         7.09793
     2013.69746         8.28368         7.12389
     2013.70020        12.28120         7.11351
     2013.70294         8.96372         7.24589
     2013.70568         3.10124         7.35750
     2013.70841         7.38976         7.21863
     2013.71115        19.12928         7.26665
     2013.71389        12.88380         7.12389
     2013.71663         5.52032         7.22382
     2013.71937         9.85184         7.22901
     2013.72210        17.31336         7.27833
     2013.72484        19.60588         7.17191
     2013.72758        12.36940         7.00838
     2013.73032         9.48092         7.05121
     2013.73305        20.72144         7.07717
     2013.74127        17.24800         7.10572
     2013.74674        19.12304         6.99540
     2013.74835         5.73052        14.75264
     2013.75392         2.46865        14.18548
     2013.75770        -0.61988         7.03693
     2013.76043        -1.09136         6.94608
     2013.76211         6.75019        14.53071
     2013.76591         3.86268         7.07197
     2013.76865         4.82320         7.15114
     2013.77569         0.00669        17.49499
     2013.77960        -0.08872         7.16282
     2013.78507        -4.09468         7.12778
     2013.78938        -4.66972        17.81556
     2013.79228        -0.68004        14.23091
     2013.79492        -2.39961        16.06866
     2013.80318         5.58899        16.13095
     2013.80698         1.91648         7.04861
     2013.81245         2.78852         7.08495
     2013.81685         0.77457        16.69682
     2013.82067         1.16208         7.10572
     2013.82236         6.35165        15.14459
     2013.83709         2.79920         7.25757
     2013.84257         0.66324         7.02785
     2013.84419        -4.82226        18.18545
     2013.85352         4.56932         7.03563
     2013.85900        -0.79364         7.11610
     2013.86173         0.13688         7.07457
     2013.86318        -3.64879        33.64282
     2013.86721         0.94492         7.06419
     2013.87269         4.84896         7.10053
     2013.87542        12.01048         7.13687
     2013.87696        10.19090        24.41512
     2013.88090         3.69852         7.14855
     2013.88232        28.91383       800.44758
     2013.88505        42.55035      1276.31089
     2013.89185        -7.25840         7.16412
     2013.89459        -4.57288         7.00059
     2013.89733         1.28964         7.00449
     2013.89908        16.26026        15.34705
     2013.90280        -5.20632         7.16282
     2013.90828         3.48872         7.21474
     2013.91375        -0.68124         7.11480
     2013.91923        13.73780         7.33284
     2013.92348        22.60272        30.41767
     2013.92625        17.29427        25.28468
     2013.93018         7.90988         6.80981
     2013.93292         5.41640         6.92791
     2013.93566        12.72792         7.01746
     2013.94387        -0.89152         6.85004
     2013.94546        -6.24205        21.95180
     2013.94935         0.27852         7.01617
     2013.95086       -33.22908        27.58966
     2013.95482        -8.48344         7.11870
     2013.95659        21.89420        13.02650
     2013.96303         1.02512         7.03174
     2013.96445       -20.54558       145.98585
     2013.97125        15.93168         7.07457
     2013.97399        -2.90480         7.14206
     2013.97946         3.96824         7.15114
     2013.98220        -2.79124         7.04861
     2013.98494        -1.43772         7.07327
     2013.98767        -4.79720         7.14985
     2013.99315        -5.87616         7.09274
     2013.99476        19.36833        18.02452
     2013.99762        10.13696        13.74291
     2014.00684        -5.52956         7.23680
     2014.00958        -1.36204         7.05510
     2014.01232        -6.47952         7.15763
     2014.01662        12.47044        20.91353
     2014.02600        10.70008         7.43278
     2014.03148        13.98012         7.15763
     2014.03422         6.12964         7.01876
     2014.03696        -2.09284         7.05900
     2014.03969        -1.44132         7.09534
     2014.04243        -0.45480         7.28482
     2014.04517         3.59572         7.23810
     2014.04791        -0.28076         7.02785
     2014.05065         0.75476         7.02785
     2014.05338        -1.97772         7.14985
     2014.05612        -0.96020         7.15633
     2014.05886        -5.06968         7.07846
     2014.06160        -2.56116         7.10702
     2014.06433        -2.15664         7.29261
     2014.06707        -1.77812         7.23031
     2014.06981         1.48240         7.17710
     2014.07255         0.45492         7.04991
     2014.07529         8.70044         7.03953
     2014.07802        24.87696         7.15504
     2014.08076         2.92148         7.12259
     2014.08350         0.60700         7.10312
     2014.08624        -2.50748         7.19267
     2014.08898        -3.28196         7.32376
     2014.09171        -4.33044         7.35101
     2014.09445        -2.75392         7.11740
     2014.09719        -2.65740         7.14855
     2014.09993         5.38412         7.06938
     2014.10266         6.54764         7.19397
     2014.10540        20.60816         7.07587
     2014.10814         8.50468         7.15633
     2014.11088        -2.06880         7.27574
     2014.11362         2.22472         7.17580
     2014.11635        21.48124         7.23550
     2014.11909        18.71976         7.15504
     2014.12183        11.22828         7.09404
     2014.12457        13.03480         7.02785
     2014.12731        12.46932         6.97593
     2014.13004         6.54484         7.07327
     2014.13278        13.87336         7.30429
     2014.13552         7.88788         7.12389
     2014.13826         1.71240         7.04083
     2014.14099         5.93392         7.01098
     2014.14373        -2.36956         7.08366
     2014.14647        -2.04804         7.13297
     2014.14921         2.41548         7.12389
     2014.15195        -1.85500         7.01357
     2014.15468         1.03252         7.14465
     2014.15742         6.18804         7.03693
     2014.16016        10.39856         7.34063
     2014.16290        -0.65292         7.22382
     2014.16564         1.31960         7.07327
     2014.16837         9.40812         7.39903
     2014.17111         6.03964         7.46263
     2014.17385         3.80916         7.52492
     2014.17659         4.32768         7.17321
     2014.17932         3.33620         7.61318
     2014.18206        -4.53328         7.33154
     2014.18480        10.55424         7.17061
     2014.18754         7.79076         7.13557
     2014.19028        -4.74672         7.13946
     2014.19301        -3.76720         7.24069
     2014.19575        -0.37068         7.24978
     2014.19849         3.87584         7.21344
     2014.20123        -6.91964         7.21214
     2014.20397        -6.20412         7.22642
     2014.20670        -3.63060         7.18878
     2014.20944        -0.93408         7.20436
     2014.21218        -2.27456         7.14595
     2014.21492        -5.90904         7.25367
     2014.21765        -0.21352         7.16412
     2014.22039        -3.61000         7.15763
     2014.22313        -1.19548         7.18619
     2014.22587        -0.01796         7.21214
     2014.22861         1.18656         7.21733
     2014.23134         6.65708         7.09793
     2014.23408         4.48660         7.32246
     2014.23682         1.59012         7.25108
     2014.23956        -0.74036         7.32376
     2014.24230        -4.96284         7.12648
     2014.24503        -6.65132         7.14206
     2014.24777         3.31920         7.41201
     2014.25051        -0.84528         7.34063
     2014.25325        -5.73876         7.29391
     2014.25598        -4.09124         7.47950
     2014.25872        -2.24072         7.20436
     2014.26146         5.19880         7.36269
     2014.26420        -4.85368         7.20695
     2014.26694        -5.27116         7.32376
     2014.26967        -8.04564         7.24589
     2014.27241        -8.28212         7.43018
     2014.27515        -5.17159         7.39773
     2014.27789        -3.25307         7.22772
     2014.28062        -1.34655         7.25886
     2014.28336        -3.85203         7.26406
     2014.28610        -7.52251         7.33674
     2014.28884        -5.70999         7.46003
     2014.29158        -5.04947         7.15504
     2014.29431         3.24405         7.17321
     2014.29705         1.17357         7.26665
     2014.29979        -8.75391         7.17580
     2014.30253        -1.78439         7.38605
     2014.30527        -3.14187         7.26665
     2014.30800        -3.12635         7.19267
     2014.31074         7.43817         7.22382
     2014.31348         4.61169         7.24459
     2014.31622        -1.75279         7.15504
     2014.31895        -2.43127         7.20825
     2014.32169        -6.90975         7.33544
     2014.32443       -11.70523         7.34193
     2014.32717       -10.01871         7.39514
     2014.32991        -3.32919         7.20436
     2014.33264        -3.75167         7.22642
     2014.33538         3.40285         7.29391
     2014.33812         4.01537         7.35880
     2014.34086        -0.08611         7.31727
     2014.34360         1.36941         7.29131
     2014.34633        -5.73807         7.16153
     2014.34907         0.15545         7.38865
     2014.35181         3.56097         7.46652
     2014.35455        -3.86251         7.34842
     2014.35728        -6.37399         7.37697
     2014.36002       -13.10047         7.20436
     2014.36276       -12.22195         7.20046
     2014.36550        -8.56243         7.09144
     2014.36824        -4.08591         7.36010
     2014.37097        -1.77539         7.42369
     2014.37371        -3.75687         7.20306
     2014.37645        -2.43835         7.24718
     2014.37919        -2.92183         7.03823
     2014.38193        -0.97931         7.29910
     2014.38466         1.80921         7.25497
     2014.38740        -8.37227         7.34063
     2014.39014        -3.73575         7.23031
     2014.39288        -1.23423         7.18619
     2014.39561        -3.87671         7.30169
     2014.39835        -1.49119         7.34971
     2014.40109        -1.67467         7.24978
     2014.40383        -6.92415         7.23161
     2014.40657        -7.37363         7.22382
     2014.40930        -7.94611         7.19397
     2014.41204        -1.99259         7.25108
     2014.41478        -1.90107         7.17061
     2014.41752        -1.05155         7.25886
     2014.42026         1.94697         7.19657
     2014.42299        -3.23151         7.25497
     2014.42573        -3.77899         7.18359
     2014.42847         1.83753         7.23291
     2014.43121        -6.03295         7.29261
     2014.43394        -2.88843         7.33674
     2014.43668        -2.38991         7.28742
     2014.43942        -0.88539         7.26665
     2014.44216        -2.71187         7.21733
     2014.44490        -4.56835         7.48469
     2014.44763         6.80317         7.33414
     2014.45037        -5.02431         7.15114
     2014.45311        -2.92379         7.16802
     2014.45585        -4.21427         7.08236
     2014.45859        -5.38375         7.04083
     2014.46132         0.30377         7.12000
     2014.46406        -6.40771         7.07976
     2014.46680        -1.75819         7.23550
     2014.46954        -0.33367         7.19008
     2014.47227        -2.87615         7.12000
     2014.47501        -0.56263         7.16023
     2014.47775        -7.31711         7.11870
     2014.48049         0.80241         7.14855
     2014.48323         5.98493         7.14076
     2014.48596         7.12245         7.22253
     2014.48870         1.85097         7.13816
     2014.49144         3.43549         7.16282
     2014.49418        -5.83099         7.04861
     2014.49692        -5.93847         7.03563
     2014.49965         0.36805         7.18878
     2014.50239        -3.43943         7.33154
     2014.50513        -0.80691         7.26795
     2014.50787        -1.19239         7.06938
     2014.51060        -6.44787         7.03953
     2014.51334         2.75865         7.03693
     2014.51608         4.24617         7.26925
     2014.51882         1.60069         7.40552
     2014.52156         1.88221         7.34712
     2014.52429         2.30973         7.22382
     2014.52703         3.09025         7.15114
     2014.52977        -0.64123         7.24589
     2014.53251         0.16229         7.16023
     2014.53525        -1.13119         7.11610
     2014.53798         4.32933         7.18229
     2014.54072        -1.31715         7.32895
     2014.54346         1.23937         7.12129
     2014.54620         2.92689         7.04083
     2014.54893         7.82241         7.10312
     2014.55167         7.80093         7.25108
     2014.55441        17.18645         7.18748
     2014.55715         2.52297         7.34712
     2014.55989         4.66249         7.07457
     2014.56262         7.57201         7.21344
     2014.56536         4.80753         7.10183
     2014.56810         0.08505         7.16672
     2014.57084        -1.35643         7.24978
     2014.57357         5.03909         7.36010
     2014.57631         3.59861         7.32376
     2014.57905        -0.72887         7.21084
     2014.58179         2.57765         7.33154
     2014.58354        12.93826        14.17510
     2014.58726         0.97369         7.48858
     2014.59000         1.89421         7.20955
     2014.59274         8.77873         7.36788
     2014.59548         3.48425         7.13687
     2014.59822         6.92477         7.42239
     2014.60095        -0.03471         7.53531
     2014.60369         0.81581         7.21733
     2014.60643        -2.13467         7.08106
     2014.60917         7.85485         7.25238
     2014.61190         3.51137         7.31986
     2014.61464        11.32189         7.15244
     2014.61738        14.43541         7.18359
     2014.62012        10.46293         7.14595
     2014.62286         5.22445         7.06938
     2014.62559        -1.64103         6.99151
     2014.62833         3.92949         7.30818
     2014.63107         6.79601         7.31986
     2014.63381         7.21653         7.50416
     2014.63655         9.25305         7.16672
     2014.63928         5.28457         7.12519
     2014.64202         2.81009         7.11091
     2014.64476        -3.06939         7.18619
     2014.64750         3.59313         7.33674
     2014.65023         1.23765         7.13427
     2014.65297         3.92817         7.12000
     2014.65571         6.40469         7.12908
     2014.65845         6.97521         7.12389
     2014.66119         3.58373         7.27314
     2014.66392         3.37825         7.17840
     2014.66666         7.40177         7.15763
     2014.66940         4.31929         7.18099
     2014.67214         7.12681         7.11740
     2014.67488         1.14533         7.22512
     2014.67761         1.31185         7.18748
     2014.68035         3.32837         7.01227
     2014.68309         0.17789         7.14465
     2014.68583         0.32341         7.06419
     2014.68856         5.37693         7.17840
     2014.69130        -0.09655         7.14985
     2014.69404        -0.66103         6.97853
     2014.69678        -1.98451         6.99151
     2014.69952         1.83601         7.02266
     2014.70225         1.70253         6.96166
     2014.70499         1.24505         7.07068
     2014.70773         1.65657         7.18748
     2014.71047         3.02609         7.05640
     2014.71321         1.93961         7.06289
     2014.71594         5.65813         7.12129
     2014.71868         3.32665         7.07068
     2014.72142         5.81317         7.14725
     2014.72404         7.94458         7.42759
     2014.72596        10.46334        13.27309
     2014.72859         4.44977        15.24323
     2014.73123        27.53520        17.36261
     2014.73387       -13.58938        24.81745
     2014.74880         4.25337         7.13297
     2014.75154         5.50389         7.24199
     2014.75427         0.16341         7.24329
     2014.75701        -1.79607         7.11740
     2014.75975         0.85245         7.10961
     2014.76249        -0.17403         7.14336
     2014.76522         0.99549         7.08885
     2014.76796         5.59201         7.08106
     2014.77070         0.16253         7.08755
     2014.77344         1.48405         7.10053
     2014.77618         7.91957         7.22772
     2014.77891         0.55209         7.08625
     2014.78165         3.31861         7.10702
     2014.78439         5.51313         7.07846
     2014.78713        14.68565         7.10961
     2014.78987         2.01217         7.04861
     2014.79260         2.50269         7.09144
     2014.79534         8.03221         7.09663
     2014.79808         3.68473         7.23550
     2014.80082        -1.65575         7.17450
     2014.80355        10.45177         7.27963
     2014.80629         3.72029         7.27963
     2014.80903        15.79581         7.08755
     2014.81177        19.77433         7.10831
     2014.81451         5.97085         7.16672
     2014.81724        11.82937         7.14076
     2014.81998         6.63889         7.10572
     2014.82272         5.71441         7.26665
     2014.82546        14.70693         7.10572
     2014.82820         1.30645         7.10312
     2014.83093         5.02897         7.07457
     2014.83367         7.31549         7.04732
     2014.83641         0.51701         7.03563
     2014.83915         8.97953         6.99151
     2014.84188         8.23505         7.11351
     2014.84462        13.42257         7.13297
     2014.84736        -3.02491         7.22253
     2014.85010         0.13361         7.21604
     2014.85284         3.06213         6.99151
     2014.85557         8.00865         7.11870
     2014.85789         6.57478         8.56320
     2014.85982         4.65755        28.54747
     2014.86246        -3.19402       126.09633
     2014.87370         4.21133        15.49631
     2014.87683         1.39221         9.61186
     2014.87906        10.79726        21.72728
     2014.88169       -13.68131        33.76871
     2014.88569        -1.80763         7.37827
     2014.88826        12.04873         8.04017
     2014.89557        -0.76654        16.25944
     2014.89870        -0.49566        10.60472
     2014.90093        -6.96761        23.50792
     2014.90356       -33.02818        42.87571
     2014.91473        25.28109        16.77209
     2014.91744        -4.98741        16.30876
     2014.92057         2.85047        10.03366
     2014.92280        37.72453        23.96477
     2014.92544        -6.02005       108.78953
     2014.93660         4.52323        15.34316
     2014.93931         8.28472        16.28540
     2014.94244        12.92860        10.19070
     2014.94467        25.21865        30.53188
     2014.95577        21.37487        16.73575
     2014.95847        20.00436        17.40155
     2014.96119        19.24785        17.86748
     2014.96432         2.59574        10.59044
     2014.96783         5.12097         6.98113
     2014.97056         7.96049         6.97983
     2014.97309         5.88881         7.69105
     2014.97764        20.59000        17.28604
     2014.98034        23.06948        18.52808
     2014.98305         6.44498        19.35741
     2014.98619       -12.82613        10.44249
     2014.98842        56.44592       115.06722
     2014.99682         1.69765        15.00702
     2014.99951         9.17613        17.31978
     2015.00221         2.89962        19.57155
     2015.00492        -7.61489        21.18997
     2015.00806       -17.77600        10.74488
     2015.01869        -2.67222        18.09071
     2015.02138        22.26226        19.70004
     2015.02408        16.64975        24.95243
     2015.02680        17.91325        27.87908
     2015.02993        -3.30287        11.41847
     2015.03788        11.88345        16.09332
     2015.04056        16.93292        20.26849
     2015.04325        20.65539        26.70712
     2015.04596        53.61288        29.98159
     2015.04867        23.87738        38.79268
     2015.05181       -10.25174        12.06999
     2015.05709         3.86613        15.46516
     2015.05975        -4.40642        19.29900
     2015.06244        15.13805        23.28989
     2015.06512        54.39052        26.64482
     2015.06783        49.83002        35.56753
     2015.07367        -4.29561        13.00703
     2015.07631       -10.32718        14.84738
     2015.07897         2.32126        17.27176
     2015.08163        -1.57729        19.80257
     2015.08431        10.27618        25.33919
     2015.08700        64.92966        58.70297
     2015.09555       -19.89947        13.05246
     2015.09819         6.90495        16.15691
     2015.10083       -11.80261        17.19908
     2015.10350       -16.49416        21.21852
     2015.10618        12.63331        30.69541
     2015.10887        17.43579       633.07931
     2015.11841       -10.79343         7.04083
     2015.12115        -6.19391         6.91364
     2015.12355       -11.93270         8.07262
     2015.12537       -14.84402        24.18800
     2015.12805       -24.66856       117.77193
     2015.13483       -10.36431         7.04212
     2015.13757        -6.86379         6.87989
     2015.14031        -6.44627         6.92402
     2015.14305        -8.23475         6.94479
     2015.14579       -10.24523         7.01357
     2015.14852        -8.55171         7.02785
     2015.15126        -9.82719         6.99410
     2015.15400       -12.76067         7.04861
     2015.15674        -8.00515         6.98632
     2015.15948        -0.03063         6.98632
     2015.16221        -3.98311         6.99670
     2015.16495        -6.40359         6.99281
     2015.16769        -4.75907         7.09404
     2015.17043        -7.18255         7.01746
     2015.17316        -9.24403         7.22772
     2015.17590       -11.78651         7.28742
     2015.17864        -6.16699         7.00319
     2015.18138        -2.92647         7.01487
     2015.18412        -4.12795         6.98502
     2015.18685        -8.72443         7.00059
     2015.18959         0.75509         7.04083
     2015.19233         2.80461         7.18489
     2015.19507       -11.00587         6.92532
     2015.19780        -4.75335         7.11091
     2015.20054         4.01917         7.03174
     2015.20328         2.55369         7.08885
     2015.20602         3.37121         7.01487
     2015.20876       -11.37527         7.09274
     2015.21149       -11.94775         7.05251
     2015.21423       -10.90623         7.20436
     2015.21697        -6.41371         7.04732
     2015.21971        -4.03019         7.13168
     2015.22245         3.24033         7.01876
     2015.22518        -4.80315         7.02266
     2015.22792        -1.85163         7.02525
     2015.23066         0.61789         7.00838
     2015.23340        -3.92259         7.13168
     2015.23613         1.40093         7.14985
     2015.23887       -10.13755         7.30689
     2015.24161        -5.64503         7.34452
     2015.24435        -2.05151         7.33544
     2015.24709        -9.76099         7.13427
     2015.24982        -9.22547         6.94479
     2015.25256        -9.15195         6.98372
     2015.25530        -7.45343         6.98372
     2015.25804        -8.50991         7.05770
     2015.26078         2.46861         6.94738
     2015.26351        -4.16087         6.97074
     2015.26625        -1.87635         6.93830
     2015.26899        -8.81083         6.94219
     2015.27173        -0.64731         7.14595
     2015.27446         3.56621         7.14465
     2015.27720        -3.79827         6.98242
     2015.27994        -8.20775         7.07327
     2015.28268       -10.33023         7.08625
     2015.28542        -9.33371         7.27314
     2015.28815       -14.40019         7.35491
     2015.29089        -8.16567         7.12519
     2015.29363        -4.33115         7.21474
     2015.29637       -10.56163         7.07976
     2015.29911        -4.05711         7.15504
     2015.30184        -0.58959         7.15633
     2015.30458        -7.07907         7.07976
     2015.30732        -4.35255         6.96036
     2015.31006        -5.82803         6.90585
     2015.31279        -9.36451         6.98502
     2015.31553       -10.13099         7.01746
     2015.31827       -10.09247         6.98891
     2015.32101        -8.10095         6.95776
     2015.32375        -8.05243         6.96555
     2015.32648       -11.00391         7.08755
     2015.32922        -9.12539         7.11610
     2015.33196       -11.19587         7.00838
     2015.33470        -9.26935         7.02266
     2015.33744        -9.36283         6.92142
     2015.34017       -15.13631         6.98113
     2015.34291       -10.74779         6.96425
     2015.34565       -10.67027         6.99021
     2015.34839        -5.92675         7.07197
     2015.35112       -14.29923         7.11480
     2015.35386        -4.20571         7.16672
     2015.35660         3.60581         7.18229
     2015.35934        -1.26467         7.01746
     2015.36208        -7.43515         7.09144
     2015.36481         5.81437         7.07717
     2015.36755         9.08389         7.06159
     2015.37029        -9.67859         7.05510
     2015.37303        -9.28007         7.02006
     2015.37577        -9.30455         7.01487
     2015.37850         2.92897         7.25108
     2015.38124        -5.28651         7.06808
     2015.38398         0.72301         7.03693
     2015.38672         2.58853         7.03693
     2015.38945        -3.72095         7.07197
     2015.39219         7.06357         7.12648
     2015.39493        -1.85091         7.15114
     2015.39767        -7.68039         7.03953
     2015.40041        -1.16487         7.06159
     2015.40314        -4.93435         7.27963
     2015.40588       -10.77083         7.10312
     2015.40862       -14.71731         7.15763
     2015.41136        -6.77479         7.10053
     2015.41410        -9.40827         7.06678
     2015.41683         2.64825         7.06808
     2015.41957        -4.43823         7.09793
     2015.42231         9.66929         7.14595
     2015.42505       -11.14219         7.22253
     2015.42778       -11.40767         7.13557
     2015.43052        -0.46715         7.05770
     2015.43326        -9.81163         7.06419
     2015.43874        -2.21859         7.29001
     2015.44147        -6.86507         7.31467
     2015.44421        -6.95455         7.07587
     2015.44695        -8.05903         7.07068
     2015.44969        -8.42951         7.09274
     2015.45243        -9.64199         7.25757
     2015.45516        -3.19047         7.17580
     2015.45790        -9.76195         7.26665
     2015.46064        -6.69743         7.27444
     2015.46338       -12.34891         7.28093
     2015.46611        -4.46439         7.06159
     2015.46885         0.96313         7.15893
     2015.47159        -4.05135         7.02525
     2015.47433        -3.81883         7.27055
     2015.47707        -7.66031         7.31078
     2015.47980        -6.44579         7.12129
     2015.48254        -4.47727         7.21863
     2015.48528        -6.63175         7.14985
     2015.48802        -6.67323         7.12000
     2015.49076         6.84729         7.37048
     2015.49349        -1.01919         7.27574
     2015.49623        -6.20367         7.34063
     2015.49897        -6.75715         7.32765
     2015.50171        -6.29163         7.00449
     2015.50444         0.19789         7.08495
     2015.50718        -7.82059         7.14985
     2015.50992        -1.02607         7.23161
     2015.51266         5.11945         7.27833
     2015.51540        15.56297         7.14465
     2015.51813         5.44449         7.00449
     2015.52087        -0.94199         7.19657
     2015.52361        -0.15347         7.21344
     2015.52635         5.35005         7.26535
     2015.52908         0.98557         7.11351
     2015.53182        18.81109         7.27833
     2015.53456         0.67961         7.01227
     2015.53730        -2.29887         7.11091
     2015.54004        -1.77035         7.12778
     2015.54277        -4.08683         7.29910
     2015.54551         5.02769         7.11221
     2015.54825        -5.03279         6.98502
     2015.55099         2.81473         7.13038
     2015.55373         1.95625         7.10442
     2015.55646         3.87777         7.20695
     2015.55920         1.63429         7.05510
     2015.56194        -0.73719         7.03953
     2015.56468         1.88433         7.16931
     2015.56741         4.80285         7.13297
     2015.57015         2.35537         7.26406
     2015.57289        -1.10811         7.22901
     2015.57563        -0.00759         7.06938
     2015.57837        -1.33607         7.06678
     2015.58110         0.75945         7.08755
     2015.58384         0.55997         7.11870
     2015.58658         4.44949         7.23031
     2015.58932         2.97101         7.42888
     2015.59206        -5.21647         7.46263
     2015.59479         0.22705         7.29910
     2015.59753         3.59357         7.15114
     2015.60027         2.94109         7.33414
     2015.60301        -2.61339         7.47950
     2015.60574        -1.39687         7.26795
     2015.60848         0.38465         7.27055
     2015.61122         4.95917         7.17450
     2015.61396         6.77069         7.17321
     2015.61670         0.16721         7.09014
     2015.61943        -0.64627         7.08495
     2015.62217        -0.36175         7.03174
     2015.62491         6.08677         7.04861
     2015.62765         1.19729         7.00708
     2015.63039         0.94581         7.03174
     2015.63312        -1.55367         7.11870
     2015.63586        -3.03815         7.19527
     2015.63860         0.46037         7.04083
     2015.64134         1.51689         7.09014
     2015.64407        -1.59359         7.10442
     2015.64681         2.02893         7.24199
     2015.64955        -2.07455         7.07846
     2015.65229         4.09497         7.06029
     2015.65503         6.34349         7.06029
     2015.65776         6.14901         7.16672
     2015.66050         6.68153         7.02785
     2015.66324        12.45005         6.99151
     2015.66598         4.71057         7.14855
     2015.66872         2.83009         7.19657
     2015.67145         7.36661         7.00838
     2015.67419         3.73813         7.00968
     2015.67693         7.09265         7.01876
     2015.67967        -1.42483         7.07457
     2015.68240         6.69069         7.03304
     2015.68514        -2.16879         7.11091
     2015.68788         4.99973         7.03953
     2015.69062         4.09825         7.15504
     2015.69336        -2.45623         7.29910
     2015.69609         4.39729         7.06419
     2015.69883         4.72681         7.13168
     2015.70157         5.42633         7.16542
     2015.70431         8.60785         7.15114
     2015.70705         4.58737         6.99540
     2015.70978        17.31289         7.04991
     2015.71252        11.15641         7.06289
     2015.71526         0.39593         7.03304
     2015.71800         5.04545         6.92402
     2015.72073         6.94497         6.94868
     2015.72347         1.14749         6.97593
     2015.72621        -2.33399         7.03304
     2015.72895        -1.80547         7.12129
     2015.73169         0.25605         7.13557
     2015.73442        -0.58743         7.06808
     2015.73716         9.27609         6.88768
     2015.73990         8.54961         7.13557
     2015.74264         5.05713         7.12519
     2015.74538         6.36865         7.42369
     2015.74811         4.04817         7.43407
     2015.75085        -4.44831         7.01487
     2015.75359         3.74121         7.01746
     2015.75633         3.41073         6.93959
     2015.75906         4.17325         6.92921
     2015.76180         2.22477         6.98113
     2015.76454         4.90329         7.20565
     2015.76690        -0.12654         8.36593
     2015.77002         8.44133         7.00449
     2015.77275        13.19085         6.87081
     2015.77549        20.43937         7.21214
     2015.77823        13.34589         7.03044
     2015.78097        11.39941         6.93181
     2015.78371        13.44293         6.90715
     2015.78644        13.88645         6.86562
     2015.78918        11.86197         6.87081
     2015.79192        18.19249         7.00708
     2015.79466        19.59301         6.95257
     2015.79739        17.64553         6.98632
     2015.80013        17.63105         6.93700
     2015.80287         8.38657         7.21993
     2015.80561         6.71609         6.98761
     2015.80835         8.77661         6.85653
     2015.81108         6.63413         6.91883
     2015.81382        12.16065         7.03044
     2015.81656        14.41217         7.02006
     2015.81930         9.73769         7.03174
     2015.82203        16.51221         7.09404
     2015.82477        19.95373         6.98502
     2015.82751        19.07625         7.15893
     2015.83025         9.84677         7.13168
     2015.83299        17.61229         7.06029
     2015.83572        19.39881         7.10702
     2015.83846        10.66733         7.08366
     2015.84120         8.88885         7.01357
     2015.84394         3.85237         6.97983
     2015.84668         5.88989         7.02655
     2015.84941         8.09641         6.96166
     2015.85215        27.31493         7.06159
     2015.85489        20.60445         7.03434
     2015.85763        11.46297         7.02136
     2015.86036         6.54449         7.12000
     2015.86310         9.39901         7.09663
     2015.86584        11.29553         7.07976
     2015.86858         9.28305         7.05251
     2015.87132        10.46057         7.09534
     2015.87405         6.29809         7.07457
     2015.87679         6.22361         7.20436
     2015.87953        14.11713         7.22253
     2015.88227        20.49465         7.09663
     2015.88501         8.84917         7.09274
     2015.88774         4.31069         7.09923
     2015.89048        10.61921         7.10572
     2015.89322        10.25373         7.12908
     2015.89596        12.74325         7.07068
     2015.89869         7.83077         7.10702
     2015.90143         2.21729         7.01227
     2015.90417         1.68181         7.01098
     2015.90691         6.18733         7.08495
     2015.90965         7.39885         7.09663
     2015.91238         8.47037         7.16802
     2015.91512         5.13289         7.04472
     2015.91786         7.17741         7.10312
     2015.92060        23.86393         7.13816
     2015.92334        10.19045         7.13297
     2015.92607         1.26097         7.00449
     2015.92881         8.11549         7.01357
     2015.93155        29.30001         7.20306
     2015.93429        25.26253         7.23161
     2015.93702        13.81205         7.26535
     2015.93976        24.35157         7.47171
     2015.94250        24.66509         7.28872
     2015.94524        22.21361         7.20825
     2015.94798        28.03313         7.21604
     2015.95071        20.85065         6.99021
     2015.95345        18.07217         6.96944
     2015.95619         1.68169         7.00319
     2015.95893        -4.55479         7.25367
     2015.96167        20.09573         7.23940
     2015.96440         9.78025         6.97204
     2015.96714         2.83677         6.99670
     2015.96988        14.46829         7.17321
     2015.97262        22.76181         7.07976
     2015.97535        15.57233         7.02525
     2015.97809        11.58485         7.06289
     2015.98083         1.85137         7.08106
     2015.98357        -7.34111         7.02136
     2015.98631        -3.28959         7.11351
     2015.98904        -4.59507         7.08106
     2015.99178        -2.39455         7.02395
     2015.99452        -2.45103         7.07068
     2015.99726         1.95949         7.03304
     2016.00000         0.60501         6.99800
     2016.00273        -0.02847         7.06808
     2016.00547         2.98305         7.05770
     2016.00821         3.10557         7.09014
     2016.01095        10.43709         7.11740
     2016.01368         6.89061         7.03044
     2016.01642         2.48713         7.15893
     2016.01916        -0.83735         7.33154
     2016.02190        -2.43483         7.14855
     2016.02464        -3.72831         7.03693
     2016.02737        -1.01779         7.10702
     2016.03011        -0.95627         7.04602
     2016.03285        14.34325         7.06808
     2016.03559         2.07977         6.94349
     2016.03833         3.31929         7.08755
     2016.04106        -3.56419         7.04991
     2016.04380         5.58833         6.97983
     2016.04654         9.67085         6.93051
     2016.04928         9.49137         6.93830
     2016.05201         2.81689         6.97983
     2016.05475        -2.08359         6.96555
     2016.05749         3.88993         6.97334
     2016.06023        11.53945         6.86821
     2016.06297         2.87297         6.90585
     2016.06570        -2.15751         7.05510
     2016.06844        -0.54799         7.11480
     2016.07118        -7.28647         7.11221
     2016.07392         4.46705         7.16802
     2016.07666        11.18857         7.16412
     2016.07939        20.54309         7.03304
     2016.08150        10.04603        10.18292
     2016.09439       -28.75711        79.37510
     2016.09582        -9.63579         7.10183
     2016.09856        -4.88527         7.10183
     2016.10130        -7.63575         7.06419
     2016.10403       -15.75823         7.07327
     2016.10677       -12.13071         7.07976
     2016.10951        -9.62219         7.04212
     2016.11225        -9.38967         7.03304
     2016.11498        -5.27615         7.04083
     2016.11772        -6.83563         7.12778
     2016.12046        -3.93711         7.05900
     2016.12320         3.07741         7.04732
     2016.12594        -5.61507         6.95387
     2016.12867         0.94345         6.95776
     2016.13141         6.30197         7.01357
     2016.13415         2.16649         7.02006
     2016.13689        -3.65499         6.96425
     2016.13963        -4.89847         7.08755
     2016.14236       -11.84295         7.01617
     2016.14510        -8.60343         7.06029
     2016.14784       -11.47591         6.99151
     2016.15058        -6.12839         7.01357
     2016.15331        -3.67587         7.16672
     2016.15605         7.43065         7.06159
     2016.15879        -6.50583         7.19008
     2016.16153        -9.74031         7.14076
     2016.16427        -6.52679         7.11351
     2016.16700        -4.26327         6.96685
     2016.16974         2.19725         6.98372
     2016.17248        -6.40623         7.16412
     2016.17522         2.08329         7.05770
     2016.17796         8.85181         7.05510
     2016.18069         0.43333         7.13168
     2016.18343        -3.24315         7.27833
     2016.18617         2.37237         6.92142
     2016.18891         7.48589         6.92791
     2016.19164         5.59641         6.87600
     2016.19438         4.27493         6.84355
     2016.19712         3.42345         6.85783
     2016.19986         6.59197         7.01487
     2016.20260        -0.89551         7.01098
     2016.20533       -11.87799         7.17710
     2016.20807        -5.18447         7.19527
     2016.56510         5.47015        18.43593
     2016.56673         4.11565         7.06419
     2016.56903        -1.90824         8.34387
     2016.57197        -3.42853         7.50805
     2016.57494        -0.08679         7.11740
     2016.57768         1.78873         6.98502
     2016.58042         3.65525         6.90066
     2016.58316        -1.62723         6.90455
     2016.58590        -2.86471         6.88898
     2016.58863         2.86881         6.94738
     2016.59137        -2.47467         6.92662
     2016.59411         1.99185         7.13038
     2016.59685         9.94037         7.16931
     2016.59958         3.23589         7.03304
     2016.60232         1.29341         6.88638
     2016.60506         2.45993         7.00319
     2016.60780         6.40245         6.93830
     2016.61054        -0.14303         7.10183
     2016.61327         2.02749         6.92013
     2016.61601        -0.96599         7.04212
     2016.61875         3.34053         6.88379
     2016.62149        -1.41095         6.96944
     2016.62423         3.44157         7.03823
     2016.62696         7.42709         7.06159
     2016.62970        -0.09939         6.97464
     2016.63244         0.59013         6.97723
     2016.63518        -0.00935         6.87470
     2016.63791         4.87417         6.87860
     2016.64065         7.25469         6.95517
     2016.64339         4.31021         6.99281
     2016.64613         2.02073         6.86691
     2016.64887        -3.66175         6.86562
     2016.65160         5.80077         6.94479
     2016.65434        -0.63271         6.81760
     2016.65708         0.77781         6.91753
     2016.65982         1.24733         6.93181
     2016.66256        -1.21615         6.93440
     2016.66529         2.18237         6.91753
     2016.66803         5.55089         6.87600
     2016.67077         7.34541         7.00708
     2016.67351        10.25493         6.98891
     2016.67624        16.56345         6.93570
     2016.67898         7.72097         6.90325
     2016.68172        12.16849         6.92402
     2016.68446        12.34101         7.15893
     2016.68720         4.80853         7.32895
     2016.68993         6.22705         7.01227
     2016.69267         1.40157         6.91883
     2016.69541         3.51409         6.88638
     2016.69815         6.71861         6.91493
     2016.70089        10.82413         6.83577
     2016.70362         4.61265         7.05380
     2016.70636         5.86417         7.25108
     2016.70910         7.21469         7.15244
     2016.71184         7.35821         6.83836
     2016.71457         6.62473         6.89677
     2016.71731        15.27625         6.74362
     2016.72005         2.03977         6.86562
     2016.72279         9.24929         6.74492
     2016.72553         6.62181         6.83187
     2016.72826        11.39933         6.87340
     2016.73100         9.09285         6.79294
     2016.73374         0.97537         6.71766
     2016.73648         3.82689         6.70987
     2016.73921         1.94241         6.71247
     2016.74195         5.72293         6.71247
     2016.74469         1.60445         6.92532
     2016.74743         6.68797         6.74492
     2016.75017         5.52449         6.80332
     2016.75290         5.06301         6.70209
     2016.75564         6.84153         6.67613
     2016.75838        22.22905         6.70987
     2016.76112        15.20457         6.70598
     2016.76386        14.89609         6.67354
     2016.76659         1.83261         6.73064
     2016.76933        11.26913         6.75011
     2016.77207         4.44865         6.74621
     2016.77481         7.01117         6.73973
     2016.77754        15.88269         6.69171
     2016.78028         8.56821         6.85134
     2016.78302         9.02373         6.72545
     2016.78576        20.25425         6.73194
     2016.78850        20.98877         6.73973
     2016.79244        25.06740        20.65525
     2016.83874         3.37701        11.55085
     2016.84052        -1.26135         6.82149
     2016.84325        -3.01883         6.88119
     2016.84599        -0.38631         6.87211
     2016.84873        11.66121         6.79813
     2016.85147         1.18273         6.91753
     2016.85420        -0.07975         6.90455
     2016.85694        -1.54823         6.92142
     2016.85968         1.37429         7.07327
     2016.86242         0.82581         6.84226
     2016.86516         6.98733         7.00838
     2016.86789         7.28885         6.88508
     2016.87063        12.28837         6.81760
     2016.87337        15.49089         7.09144
     2016.87611         3.71241         6.95906
     2016.87885         0.76293         6.75790
     2016.88158        -3.64455         6.69300
     2016.88432         0.30897         6.71636
     2016.88706         5.74849         6.82279
     2016.88980         9.59001         6.95257
     2016.89253         3.97653         6.76309
     2016.89527         4.05805         6.73194
     2016.89801         0.03857         6.66315
     2016.90075         1.67509         6.67483
     2016.90349         6.52461         6.98632
     2016.90622         4.54113         6.95647
     2016.90896         4.70165         6.77736
     2016.91170        -0.59883         6.70598
     2016.91444         0.42669         6.76958
     2016.91718         1.14721         6.83836
     2016.91991        -6.42027         6.90974
     2016.92265        -0.68875         6.78126
     2016.92539         3.85377         6.69949
     2016.92813        10.02829         6.76958
     2016.93086         8.77981         6.79683
     2016.93360        -5.69967         6.87211
     2016.93634        -1.32015         6.85134
     2016.93908        13.63137         7.01487
     2016.94182        14.82289         6.79813
     2016.94455         4.10141         6.82798
     2016.94729         3.97993         6.78515
     2016.95003        -1.69755         6.81760
     2016.95277         0.60897         6.80332
     2016.95551        11.22349         6.75270
     2016.95824       -10.01399         6.75919
     2016.96098        -4.98847         6.91493
     2016.96372       -11.03595         6.84226
     2016.96646        -6.77643         6.90196
     2016.96919        10.52209         6.81500
     2016.97193        -3.03539         6.85264
     2016.97467         1.46013         6.91753
     2016.97741         6.34065         6.83187
     2016.98015         2.46217         6.88638
     2016.98288         3.19469         6.76568
     2016.98562        -0.01779         6.89677
     2016.98836         1.89473         6.82409
     2016.99110        -0.23775         6.80721
     2016.99384        -2.35623         6.89547
     2016.99657         2.89229         6.83706
     2016.99931        -0.98319         6.83317
     2017.00205         0.66433         6.73194
     2017.00479        -0.46615         6.71117
     2017.00752       -10.16863         6.78904
     2017.01026        -3.87911         6.85783
     2017.01300         1.70541         6.85783
     2017.01574         0.65493         6.82928
     2017.01848         0.54745         6.81370
     2017.02121         6.25397         6.82019
     2017.02395         6.36349         6.85004
     2017.02669         4.25901         6.93570
     2017.02943         1.30553         6.85264
     2017.03216       -12.70695         6.89157
     2017.03490       -10.97543         6.79424
     2017.03764        -9.38491         6.81760
     2017.04038        -4.55039         6.87081
     2017.04312        -3.01287         6.87600
     2017.04585        -2.25735         7.13687
     2017.04859        16.15117         7.15893
     2017.05133        11.19869         6.89806
     2017.05407         6.32621         6.95387
     2017.05681         9.82373         6.81630
     2017.05954        -1.48275         6.87470
     2017.06228        -0.81023         6.88379
     2017.06502        -6.34371         6.91753
     2017.06776        -7.72319         6.94479
     2017.07049        -5.29767         6.83836
     2017.07323        -9.65815         6.83836
     2017.07597       -10.77163         6.86432
     2017.07871       -10.67011         6.83577
     2017.08145       -12.76759         6.85523
     2017.08418       -13.64207         6.93051
     2017.08692        -6.48155         6.89936
     2017.08966        -6.62603         6.87340
     2017.09240        -2.11951         6.87211
     2017.09514         7.74401         6.82798
     2017.09787         7.67753         6.85783
     2017.10061        -2.74895         6.86562
     2017.10335        -3.33143         6.85523
     2017.10609         5.86109         6.89806
     2017.10882        11.20061         6.89417
     2017.11156        -2.13487         6.87211
     2017.11430        -7.82235         6.94089
     2017.11704       -15.66383         6.87340
     2017.11978       -11.56331         6.91234
     2017.12251       -10.56879         6.93181
     2017.12525         1.03673         6.94089
     2017.12799         7.86425         6.86562
     2017.13073         5.47077         6.86172
     2017.13347         2.90529         6.80072
     2017.13620         4.49881         6.80592
     2017.13894         0.69133         6.88898
     2017.14168        -4.59515         6.87081
     2017.14442       -10.08063         6.83577
     2017.14715       -12.57111         6.81889
     2017.14989        -7.59959         6.88768
     2017.15263        -4.87307         6.90196
     2017.15537        -3.29655         6.86821
     2017.15811        -2.49103         7.00319
     2017.16084        -4.69251         6.88768
     2017.16632        -8.98747         6.93570
     2017.16906       -11.34395         6.91364
     2017.17180         3.48557         6.91883
     2017.17727        -2.82939         6.97983
     2017.18001        -3.24087         6.83706
     2017.18275         4.68465         6.85913
     2017.18548         2.06617         6.91493
     2017.18822       -12.28631         6.97464
     2017.19096        -7.92179         6.89028
     2017.19370       -10.43827         6.87860
     2017.19644       -11.61775         6.90455
     2017.19917        -3.11923         6.87211
     2017.20191         3.74829         6.97983
     2017.20465        -1.96319         7.03953
     2017.21013         7.37485         6.86172
     2017.21286         4.97637         6.88768
     2017.21560         0.26089         6.93570
     2017.21834        -2.16959         6.99151
     2017.22108         4.80193         6.88249
     2017.22381        -5.61155         7.06419
     2017.22655        -0.23103         7.04083
     2017.22929        -4.92251         6.88508
     2017.23203        -4.36899         6.86432
     2017.23477        -1.18847         6.85653
     2017.23750       -11.32595         6.88508
     2017.24024        -2.44743         6.88508
     2017.24298        -1.70891         6.87340
     2017.24572        -8.78239         6.85523
     2017.24846       -13.92187         6.99800
     2017.25119        -8.53135         6.85523
     2017.25393        -8.39083         6.86821
     2017.25667       -10.88431         6.90196
     2017.25941       -13.66279         6.97334
     2017.26214        -4.41027         6.92662
     2017.26488        -4.16575         6.90196
     2017.26762        -5.86023         6.86302
     2017.27036        -5.63571         6.81111
     2017.27310        -8.17919         6.87340
     2017.27583        -8.93267         6.93440
     2017.27857        -1.17615         6.94608
     2017.28131        -7.83263         6.89547
     2017.28405       -13.16311         6.78515
     2017.28679       -12.63359         6.87081
     2017.28952       -12.03507         6.96815
     2017.29226         0.92645         6.93959
     2017.29500        -1.88803         6.89547
     2017.29774       -11.32351         6.82538
     2017.30047        -9.42099         6.91364
     2017.30321       -10.76547         6.90066
     2017.30595       -11.65295         6.96555
     2017.30869       -11.12843         6.87989
     2017.31143        -7.25791         6.83836
     2017.31416       -10.55039         6.85783
     2017.31690         3.21513         6.85783
     2017.31964       -13.12235         7.03693
     2017.32238       -15.31983         6.95127
     2017.32512       -18.19131         6.89287
     2017.32785        -5.02179         6.85653
     2017.33059       -19.30427         6.79943
     2017.33333       -13.33075         6.83706
     2017.33607       -10.37323         6.87730
     2017.33880       -12.54971         6.95906
     2017.34154        -1.53619         7.16023
     2017.34428       -13.81067         6.79553
     2017.34702       -14.41215         6.83966
     2017.34976        -9.86863         6.85523
     2017.35249       -15.44611         6.84485
     2017.35523       -14.97559         6.80462
     2017.35797       -15.06607         6.82928
     2017.36071        -2.02955         6.85783
     2017.36344       -12.90903         6.85394
     2017.36618        -9.07251         6.77996
     2017.36892        -5.92399         6.83057
     2017.37166        -4.75447         6.82019
     2017.37440       -10.87795         6.82668
     2017.37713        -8.08543         6.98891
     2017.37987       -17.30591         6.96944
     2017.38261       -12.41239         6.78515
     2017.38535       -15.58187         6.77347
     2017.38809       -10.64535         6.76568
     2017.39082       -10.61583         6.82019
     2017.39356        -8.23631         6.82668
     2017.39630        -6.44879         6.73324
     2017.39904        -7.17327         6.78385
     2017.40177       -10.61175         6.76309
     2017.40451        -8.56523         6.93570
     2017.40725        -8.39071         6.84226
     2017.40999        -5.94819         6.83187
     2017.41273        -3.81067         6.80851
     2017.41546       -11.30715         6.76179
     2017.41820        -2.44863         6.95906
     2017.42094       -12.06111         6.88768
     2017.42368       -11.10959         6.86302
     2017.42642       -10.34207         6.73583
     2017.42915        -8.16055         6.76049
     2017.43189        -6.70103         6.94608
     2017.43463        -1.12051         6.95127
     2017.43737         2.18401         6.86302
     2017.44010         0.70653         6.82149
     2017.44284        -1.96895         6.78515
     2017.44558        -1.56743         6.83706
     2017.44832        -6.58791         6.89806
     2017.45106        -2.15139         6.88508
     2017.45379        -8.07487         6.98891
     2017.45653        -5.49635         7.06289
     2017.45927        -5.28383         6.86821
     2017.46201        -5.99231         6.96815
     2017.46475        -3.11979         6.97723
     2017.46748        -3.38427         7.00708
     2017.47022        -5.34475         6.85134
     2017.47296        -8.19323         6.84615
     2017.47570        -9.27571         6.90325
     2017.47843        -9.33919         6.90066
     2017.48117        -3.66667         6.98632
     2017.48391         0.80885         7.19657
     2017.48665        -5.42263         6.85653
     2017.48939        -6.55311         6.82019
     2017.49212        -3.85359         6.83447
     2017.49486        -8.27107         6.92921
     2017.49760        -8.69855         6.94998
     2017.50034        -4.22103         6.86043
     2017.50308        -3.06451         6.82279
     2017.50581        -7.25299         6.87470
     2017.50855        -6.97147         6.90715
     2017.51129        -8.64395         6.98632
     2017.51403        -5.73243         6.92791
     2017.51676        -8.14891         6.93959
     2017.51950       -11.88939         6.93440
     2017.52224        -2.38887         6.89417
     2017.52498        -4.12635         6.88379
     2017.52772        -1.84183         7.08236
     2017.53045        -9.43731         6.89547
     2017.53319        -5.84779         6.98632
     2017.53593         2.68573         7.10831
     2017.53867        -0.19375         6.93570
     2017.54141         1.37877         6.95517
     2017.54414         0.30029         6.98632
     2017.54688        -0.72019         7.09144
     2017.54962        -6.17967         6.92142
     2017.55236        -7.11015         6.91883
     2017.55509        -1.96063         6.80981
     2017.55783        -1.00311         6.86691
     2017.56057        -4.48759         6.82668
     2017.56331        -1.22907         6.82538
     2017.56605        -0.46455         6.92921
     2017.56878        -4.06903         6.87081
     2017.57152         5.51949         6.94479
     2017.57426        -9.21299         6.86432
     2017.57700        -3.73347         6.80851
     2017.57974        -4.70295         6.81630
     2017.58247        -6.11243         6.80592
     2017.58521        -3.54991         6.76049
     2017.58795        -8.32439         6.91493
     2017.59069        -3.86687         7.01357
     2017.59342        -6.33135         6.81760
     2017.59616        -4.21783         6.82538
     2017.59890        -6.94831         6.82798
     2017.60164        -0.83079         6.95127
     2017.60438         3.05873         6.95776
     2017.60711        -4.72275         6.87600
     2017.60985         3.94677         7.04732
     2017.61259         4.36929         6.86951
     2017.61533         0.48181         6.95776
     2017.61807         6.89833         6.97723
     2017.62080        -3.39015         6.79813
     2017.62354        -1.33263         6.87989
     2017.62628        -2.81411         6.92402
     2017.62902         0.11941         7.07717
     2017.63175        -1.61807         6.83317
     2017.63449        -0.79255         6.77996
     2017.63723        -2.23803         6.76309
     2017.63997        -3.79851         6.85004
     2017.64271         1.20301         6.79813
     2017.64544         1.58953         6.82668
     2017.64818        -2.89495         6.97853
     2017.65092         0.67457         6.77866
     2017.65366         2.91909         6.76438
     2017.65639         2.44761         6.80072
     2017.65913        -1.18987         6.75270
     2017.66187        -6.62835         6.83057
     2017.66461         5.04017         6.93700
     2017.66735         0.47969         6.86691
     2017.67008         0.26321         6.77087
     2017.67282        -2.52927         6.98113
     2017.67556        -0.22775         6.78645
     2017.67830        -0.62023         6.81500
     2017.68104        -1.20071         6.82928
     2017.68377         3.32481         7.01098
     2017.68651        15.91133         7.09274
     2017.68925         2.67485         6.81500
     2017.69199        -5.01863         6.83057
     2017.69472         3.44189         6.83317
     2017.69746         4.46041         6.87470
     2017.70020         4.00793         6.76049
     2017.70294         7.79945         6.96555
     2017.70568        -1.50403         6.74362
     2017.70841         5.20949         6.86562
     2017.71115         1.95901         6.90585
     2017.71389        14.19353         6.92921
     2017.71663        25.50705         6.82279
     2017.71937        21.46157         6.84874
     2017.72210         2.37509         6.88379
     2017.72484         1.77361         6.87081
     2017.72758         5.24513         6.83966
     2017.73032         4.47565         6.86172
     2017.73305         5.11317         6.85394
     2017.73579         5.53269         6.91234
     2017.73853         3.95221         6.84226
     2017.74127         0.32473         6.88638
     2017.74401         3.49125         6.87989
     2017.74674         9.85477         6.82538
     2017.74948         5.66329         6.90845
     2017.75222        -2.72719         6.92791
     2017.84804       -10.73899         6.78255
     2017.85078        -9.93947         6.82668
     2017.85352        -9.84895         6.86951
     2017.85626         1.85457         6.97464
     2017.85900        -0.89891         7.04602
     2017.86173        -1.15339         7.05770
     2017.86447        -9.71187         6.85913
     2017.86721        -0.47235         6.87211
     2017.86995        -8.92283         6.93959
     2017.87269        -4.37131         6.92662
     2017.87542         7.65021         6.74232
     2017.87816         5.91373         6.85004
     2017.88090        -4.57375         6.96944
     2017.88364        -9.19323         6.80072
     2017.88637         7.67229         6.87340
     2017.88911        10.02181         6.83317
     2017.89185         0.61533         6.90585
     2017.89459        11.99285         7.00059
     2017.89733         4.66637         7.07197
     2017.90006        -8.87111         6.96815
     2017.90280        -7.27859         7.00059
     2017.90554         1.78293         6.85783
     2017.90828        -8.83455         7.00838
     2017.91102        -5.43103         7.12389
     2017.91375       -13.59251         7.10572
     2017.91649       -12.40899         7.01227
     2017.91923        -8.09447         6.94219
     2017.92197        -7.94095         6.96944
     2017.92470       -13.03843         6.98372
     2017.92744       -16.92691         6.92532
     2017.93018       -14.55739         6.90196
     2017.93292       -15.07287         7.01098
     2017.93566       -13.31435         6.96166
     2017.93839       -12.65683         7.01617
     2017.94113       -15.26531         6.97983
     2017.94387       -13.15079         6.94219
     2017.94661        -8.52427         6.94089
     2017.94935        -9.04875         6.91234
     2017.95208       -12.66623         7.14465
     2017.95482       -11.26071         6.98113
     2017.95756       -13.59619         6.94089
     2017.96030        -9.27567         6.88638
     2017.96303       -13.54315         6.91493
     2017.96577        -7.89863         7.05121
     2017.96851        -8.66111         6.85783
     2017.97125       -10.01759         6.90585
     2017.97399       -17.29207         6.94219
     2017.97672       -15.88555         6.87989
     2017.97946       -13.97003         6.90196
     2017.98220        -6.36651         6.87730
     2017.98494       -16.60499         6.86043
     2017.98767       -14.12047         6.89936
     2017.99041       -18.30695         6.93830
     2017.99315        -8.25443         6.94738
     2017.99589        -7.61291         7.03823
     2017.99863       -18.39439         6.95776
     2018.00136       -19.61987         6.94608
     2018.00410       -21.67635         6.93570
     2018.00684       -18.28683         6.90196
     2018.00958       -12.55531         6.90196
     2018.01232        -9.73779         6.96815
     2018.01505        -7.32427         6.85523
     2018.01779       -13.84975         6.89936
     2018.02053       -11.60523         6.93051
     2018.02327         8.69429         6.91883
     2018.02600       -12.50319         6.95257
     2018.02874        -0.76467         6.93051
     2018.03148       -12.15415         6.97593
     2018.03422       -17.85563         6.99410
     2018.03696       -19.72511         6.86172
     2018.03969       -21.77159         6.99021
     2018.04243       -10.66207         6.97074
     2018.04517       -14.14855         6.87989
     2018.30085        -7.59621        15.40027
     2018.30253       -15.81267         6.81240
     2018.42696         3.02886        25.27689
     2018.42847        -3.92875         6.81240
     2018.43121        -1.16723         6.83966
     2018.43394        -9.40671         6.82279
     2018.43668        -4.51319         6.82279
     2018.43942        -8.65867         6.83966
     2018.44216         0.83885         6.82798
     2018.44490       -10.00463         6.82928
     2018.44763       -14.27511         6.86821
     2018.45037       -12.64659         6.79164
     2018.45311        -3.92607         6.88119
     2018.45585         1.29745         6.82019
     2018.45859        -2.14703         6.85004
     2018.46132       -13.85351         6.82798
     2018.46406        -4.84099         6.87470
     2018.46680        -8.09447         6.90845
     2018.46954        -8.12795         6.89028
     2018.47227        -9.58343         6.93181
     2018.47501        -5.81091         6.80981
     2018.47775        -9.78739         6.81630
     2018.48049        -9.65787         6.89417
     2018.48323        -9.30035         6.81630
     2018.48596       -13.12283         6.81370
     2018.48870       -11.13131         6.91623
     2018.49144        -4.39579         6.79164
     2018.49418        -6.78127         6.88379
     2018.49692        -7.90475         6.95517
     2018.49965       -12.08523         6.75790
     2018.50239       -11.21171         6.80462
     2018.50513       -14.03819         6.82409
     2018.50787        -5.85467         6.91883
     2018.51060       -10.02615         6.94479
     2018.51334        -7.35663         6.82149
     2018.51608        -6.06311         6.89287
     2018.51882       -11.39159         6.94089
     2018.52156        -8.99707         6.83187
     2018.52429        -7.43355         6.82019
     2018.52703        -7.77103         6.77087
     2018.52977        -8.33151         6.85523
     2018.53251       -12.68799         6.87989
     2018.53525        -0.90747         6.81760
     2018.53798       -15.99095         7.00319
     2018.54072        -4.13743         6.89936
     2018.54620        -5.57639         6.78255
     2018.54893        -6.60587         6.86432
     2018.55167        -7.68835         6.84485
     2018.55441        -7.49883         6.76049
     2018.55715        -7.68131         6.98761
     2018.55989        -9.09179         6.97723
     2018.56262        -3.09927         6.88119
     2018.56536        -8.86975         6.84874
     2018.56810        -4.98723         6.83317
     2018.57084        -8.92971         6.84874
     2018.57357        -4.58619         7.01098
     2018.57631        -2.63067         7.10702
     2018.57905        -3.17815         7.19008
     2018.58179        -2.99663         7.08495
     2018.58453         3.13989         6.96944
     2018.58726        -6.63959         6.85653
     2018.59000         0.01093         6.78904
     2018.59274         9.70445         6.87860
     2018.59548        -1.10703         6.79424
     2018.59822        -1.89551         6.79813
     2018.60095        -5.75799         6.86302
     2018.60369         1.22953         6.90585
     2018.60643        -3.26395         6.85004
     2018.60917         0.81157         6.76309
     2018.61190        -0.80491         6.84355
     2018.61464        -1.90139         6.80202
     2018.61738        -1.13387         6.81889
     2018.62012        -0.73135         6.79034
     2018.62286         1.52917         7.03044
     2018.62559         1.51369         6.97334
     2018.62833        -4.84079         6.81760
     2018.63107        -4.41627         6.81760
     2018.63381        -3.62775         6.96555
     2018.63655        -8.22323         6.74751
     2018.63928        -6.22871         7.11351
     2018.64202        -4.22119         7.10183
     2018.64476        -4.38767         6.87081
     2018.64750        -0.84015         6.85783
     2018.65023        -2.16163         6.83187
     2018.65297        -3.06011         6.81889
     2018.65571         0.99641         6.77217
     2018.65845        -2.61307         6.79813
     2018.66119        -0.26055         6.91104
     2018.66392        -0.76303         6.87211
     2018.66666         2.99649         6.85913
     2018.66940        -1.82699         6.80072
     2018.67214        -2.78047         6.81500
     2018.67488        -4.66295         6.85394
     2018.67761        -4.88643         6.84485
     2018.68035        -2.42191         6.91493
     2018.68309        -6.69939         6.84355
     2018.68583        -0.77987         6.83706
     2018.68856        -0.65235         6.87211
     2018.69130        -6.40683         6.86302
     2018.69404         6.76669         7.08625
     2018.69678         1.82121         6.77477
     2018.69952         0.73773         6.75919
     2018.70225        -2.28375         6.91883
     2018.70499        -3.60423         6.85134
     2018.70773         0.38129         6.80721
     2018.71047        -0.82819         6.83447
     2018.71321         1.01033         6.78775
     2018.71594        -6.90215         6.77347
     2018.71868        -8.71463         6.81111
     2018.72142        -7.37711         6.84485
     2018.72416        -6.67259         6.94998
     2018.72689         4.97593         6.85264
     2018.72963        -4.44355         6.78255
     2018.73237       -11.78903         7.05900
     2018.73511        -7.52551         6.83057
     2018.73785        -1.99799         6.82019
     2018.79358       -26.89769        12.46713
     2018.79534        -1.18507         6.78385
     2018.79808        -4.45755         6.78255
     2018.80082        -1.12803         6.77477
     2018.80355         0.12149         6.79034
     2018.80629         2.82201         6.94868
     2018.80903        -0.07147         6.83447
     2018.81177         2.92905         7.13946
     2018.81451        -2.02043         6.86432
     2018.81724        -2.22891         6.83187
     2018.81998        12.68061         6.81370
     2018.82272        11.96713         6.84226
     2018.82546         8.48765         6.78126
     2018.82820        -1.36383         6.78645
     2018.83093         3.38969         6.85134
     2018.83367        10.48521         6.72675
     2018.83641        14.87673         7.00319
     2018.83915        -3.95075         6.83187
     2018.84188       -14.05023         6.94219
     2018.84462        -6.05271         6.76828
     2018.84736       -13.24819         6.77217
     2018.85010        -0.12367         6.78515
     2018.85284        -8.46215         6.82149
     2018.85557       -13.06563         6.87081
     2018.85831        -5.14311         6.94868
     2018.86105        -8.78259         6.82279
     2018.86379        -6.88807         6.97593
     2018.86653        -4.32655         6.82279
     2018.86926       -11.83703         6.97334
     2018.87200        -4.24551         6.89936
     2018.87474        -6.39899         6.84485
     2018.87748         0.72053         6.87860
     2018.88021        -4.45695         6.90845
     2018.88295        -5.95443         7.03693
     2018.88569        -6.25191         7.10053
     2018.88843        -1.62339         7.09663
     2018.89117         9.51213         6.97853
     2018.89390         7.85165         7.16802
     2018.89664        -3.27883         7.21604
     2018.89938        -5.93531         7.00319
     2018.90212        -6.36779         7.00189
     2018.90485         3.03673         6.96815
     2018.90759        14.87225         6.99670
     2018.91033         7.54177         6.82149
     2018.91307         1.17229         6.92662
     2018.91581        -5.08219         6.85783
     2018.91854         0.48633         6.98761
     2018.92128        -3.68215         6.87211
     2018.92402        -3.39663         6.90974
     2018.92676         1.40189         6.72026
     2018.92950        -0.05959         6.86691
     2018.93223        -1.24907         6.99410
     2018.93497        -6.59255         6.88898
     2018.93771        -2.18703         6.87081
     2018.94045         1.04749         6.75660
     2018.94318         2.01101         6.78385
     2018.94592         9.13853         6.85004
     2018.94866        -6.34495         7.14076
     2018.95140        -0.28043         7.02136
     2018.95414         5.03909         6.86302
     2018.95687         4.47561         6.85523
     2018.95961         6.53113         6.85523
     2018.96235         9.41865         6.86951
     2018.96509         4.99117         6.81111
     2018.96783        -1.72131         6.83706
     2018.97056        11.46821         6.90325
     2018.97330        -3.11327         6.82149
     2018.97604        -1.66475         6.80721
     2018.97878        -1.59623         6.81370
     2018.98151         1.84029         6.96555
     2018.98425        -3.60319         7.24459
     2018.98699       -12.84267         7.02395
     2018.98973       -10.97615         6.95647
     2018.99247       -11.31063         6.98372
     2018.99520        -9.70411         7.08495
     2018.99783       -24.40469        13.27699
     2019.00093       -23.15084         7.83511
     2019.00342       -14.01355         7.00189
     2019.00616        -9.38003         6.90196
     2019.00889        -6.72251         6.92142
     2019.01163        -7.56199         6.89936
     2019.01437        -3.93347         7.00708
     2019.01711        -0.24395         6.91234
     2019.01984       -12.19343         6.83836
     2019.02258        -3.76091         6.92142
     2019.02532        -1.22539         7.03044
     2019.02806        -8.68887         7.09923
     2019.03080       -12.05035         7.07197
     2019.03353       -15.65783         6.94349
     2019.03627       -17.28831         6.91104
     2019.03901        -6.94579         7.01227
     2019.04175        -5.34227         6.94219
     2019.04449         7.97925         6.94219
     2019.04722        -9.47223         7.12129
     2019.04996        -8.86971         7.10312
     2019.05270        -6.78019         7.14206
     2019.05544       -11.05367         7.00189
     2019.05817       -17.44415         7.22772
     2019.06091       -11.18963         7.05900
     2019.06365       -10.01711         7.04342
     2019.06639       -11.21459         7.18229
     2019.06913       -12.66107         7.05380
     2019.07186       -13.32655         7.06549
     2019.07460        -9.57703         6.98372
     2019.07734        -7.62451         7.10442
     2019.07956        -4.39647         9.06677
     2019.08282        -5.97747         7.13946
     2019.08555        -5.20495         6.88249
     2019.08829         4.17357         6.92402
     2019.09103        10.25509         6.87470
     2019.09377         3.73161         6.90715
     2019.09650         3.04613         6.88638
     2019.09924        -3.68535         6.88508
     2019.10198       -11.49083         6.88508
     2019.10472       -10.92531         6.92402
     2019.10746        -6.21779         6.91364
     2019.11019        -8.53727         6.98891
     2019.11293        -6.13575         7.21474
     2019.11567        -4.37223         7.20176
     2019.11841        -0.74771         6.91364
     2019.12115         6.74681         7.12000
     2019.12388         4.62733         7.09274
     2019.12662        -1.18115         6.92791
     2019.12936        -7.58063         7.05121
     2019.13210        -5.66911         6.91104
     2019.13483       -10.33859         7.01876
     2019.13641       -15.60814        19.34702
     2019.14031        -4.58855         7.06029
     2019.14305        -5.16203         6.92402
     2019.14579        -5.07651         7.06289
     2019.14852        -2.47099         7.00838
     2019.15126        -7.76747         6.92662
     2019.15400       -10.93395         6.91234
     2019.16221       -11.51639         7.16802
     2019.16495        -9.99587         6.96166
     2019.16769       -16.01335         6.91883
     2019.17043       -13.47483         6.89547
     2019.17316       -12.89931         6.84096
     2019.17590        -6.06679         6.97983
     2019.17864        -2.18827         7.16153
     2019.18138       -11.16275         6.96036
     2019.18412       -20.20123         6.88768
     2019.18685       -12.36871         6.89287
     2019.18959       -15.16219         6.87989
     2019.19233       -12.89667         6.86821
     2019.19507       -14.03315         6.83447
     2019.19780       -18.45763         6.90585
     2019.20054       -19.57511         7.10572
     2019.20328       -18.43959         6.89547
     2019.20602       -19.52607         6.89936
     2019.20876       -18.29355         6.85394
     2019.21149       -20.87103         6.78775
     2019.21423       -16.52651         6.85783
     2019.21697        -7.93499         6.82798
     2019.21971       -15.42647         7.07846
     2019.22245        -8.49495         6.73453
     2019.22518       -13.71343         6.79294
     2019.22792       -13.35591         6.81240
     2019.23066       -14.54239         6.81889
     2019.23340        -5.64087         6.85134
     2019.23613       -14.06835         6.76958
     2019.23887       -15.76683         6.77087
     2019.24161       -16.97031         7.00968
     2019.24435       -15.84979         6.98113
     2019.24709        -9.70627         6.97204
     2019.24982         4.17425         6.76438
     2019.25256         1.55877         6.93700
     2019.25530        -8.06671         6.79164
     2019.25804        -0.11619         6.80592
     2019.26078        -3.63567         6.77866
     2019.26351         9.19885         6.90196
     2019.26899       -10.04811         6.90585
     2019.27173       -14.88259         7.15504
     2019.27446       -19.40007         6.80202
     2019.27720        -5.01255         6.94219
     2019.27994        -9.07103         6.76049
     2019.28268        -4.09651         6.75530
     2019.28542        -9.02899         6.82279
     2019.28815        -7.28947         6.86691
     2019.29089       -12.52595         6.83836
     2019.29363       -12.98843         6.83187
     2019.29637        -8.44291         6.96166
     2019.29911         4.18661         6.80592
     2019.30184       -10.57287         6.87211
     2019.30458       -20.06735         6.81760
     2019.30732       -14.83083         6.90455
     2019.31006        -4.47031         6.92402
     2019.31279       -14.63079         6.85653
     2019.31553        -7.34327         6.79813
     2019.31827       -12.96475         6.80592
     2019.32101       -14.23823         6.79034
     2019.32375       -20.98171         6.76049
     2019.32648       -17.35319         6.79553
     2019.32922       -17.38767         6.77087
     2019.33196       -10.84015         7.06678
     2019.33470       -11.73563         7.01227
     2019.33744       -11.64611         6.84096
     2019.34017       -15.16359         6.77866
     2019.34291       -13.71707         6.77087
     2019.34565       -11.32555         6.93440
     2019.34839       -20.56203         6.91493
     2019.35112       -16.08151         6.82149
     2019.35386       -11.84899         6.84745
     2019.35660        -6.78047         6.77736
     2019.35934        -8.68095         6.85653
     2019.36208       -12.96443         6.83447
     2019.36481        -5.09891         6.81500
     2019.36755        -3.85039         6.82279
     2019.37029         0.47813         6.95776
     2019.37303         1.77265         6.88638
     2019.37577        -2.08483         7.00838
     2019.37850         1.34969         6.82149
     2019.38124         9.20221         6.82019
     2019.38398         1.40573         6.85913
     2019.38672         4.63125         7.33284
     2019.38945        -9.49423         6.91753
     2019.39219       -10.58171         6.94608
     2019.39493        -5.44919         6.83836
     2019.39767         1.44233         6.91753
     2019.40041         4.82485         6.92013
     2019.40314        -2.55263         6.95257
     2019.40588         5.77189         7.17321
     2019.40862       -11.21959         6.87600
     2019.41136        -9.01507         6.85004
     2019.41410        -7.89255         6.79943
     2019.41683        -6.97203         6.83836
     2019.41957        -6.29951         6.92142
     2019.42231       -14.03399         6.85523
     2019.42505       -12.77947         6.81370
     2019.42778        -1.99495         7.08755
     2019.43052       -10.52543         6.85523
     2019.43326       -13.81891         6.85134
     2019.43600       -17.55239         7.30818
     2019.43874       -21.88787         6.93700
     2019.44147       -18.63835         6.96685
     2019.44421       -13.57083         7.00968
     2019.44695       -13.33831         6.94738
     2019.44969       -12.04179         7.03434
     2019.45243       -10.54727         6.93440
     2019.45516       -14.52775         7.06159
     2019.45790       -11.35823         7.00708
     2019.46064       -10.37871         7.06159
     2019.46338       -15.04119         7.34971
     2019.46611       -12.10867         7.29391
     2019.46885        -5.84215         7.19267
     2019.47159        -6.08463         6.96296
     2019.47433       -10.24211         7.01098
     2019.47707        -8.08659         7.00968
     2019.47980        -7.78307         7.01098
     2019.48254        -6.99155         7.02395
     2019.48528        -2.24303         7.01357
     2019.48802       -15.72651         7.01746
     2019.49076        -5.47199         6.87600
     2019.49349       -10.58347         6.90585
     2019.49623         4.35205         6.84745
     2019.49897        -5.42043         6.81630
     2019.50171        -5.42091         6.87989
     2019.50444        -7.50739         6.80332
     2019.50718       -14.63987         6.83706
     2019.50992       -12.02235         7.00319
     2019.51266       -14.44283         6.94998
     2019.51540       -10.40331         6.92532
     2019.51813       -14.90879         6.87081
     2019.52087        -8.87627         6.94738
     2019.52361        -5.09875         6.81500
     2019.52635        -8.03523         6.87600
     2019.52908        -7.75371         7.25497
     2019.53182       -10.50119         7.06029
     2019.53456       -16.67767         6.99540
     2019.53730        -0.64515         7.11480
     2019.54004        -7.07763         7.02655
     2019.54277        -9.12311         7.07197
     2019.54551        -1.68959         7.36399
     2019.54825        -9.32807         6.82798
     2019.55099        -9.47055         6.92142
     2019.55373        -6.11803         7.05380
     2019.55646        -4.49551         7.34193
     2019.55920       -11.26799         7.22642
     2019.56194        -7.10947         6.86172
     2019.56468       -11.36295         6.98372
     2019.56741        -8.63143         7.00708
     2019.57015        -4.15591         6.88379
     2019.57289        -7.90339         7.07587
     2019.57563        -7.56087         6.90455
     2019.57837        -6.53035         6.98891
     2019.58110        -5.18683         6.92142
     2019.58384       -12.87231         7.05380
     2019.58658       -12.10679         6.98113
     2019.58932        -2.57827         6.89417
     2019.59206        -7.38775         7.00838
     2019.59479         0.52977         6.99670
     2019.59753       -10.09571         7.34063
     2019.60027        -9.56619         7.28612
     2019.60301        -1.98667         7.00319
     2019.60574        -1.17215         7.23421
     2019.60848        -1.06263         7.12259
     2019.61122       -12.26311         6.85134
     2019.61396        -8.69359         6.98632
     2019.61670        -5.64007         6.88768
     2019.61943        -4.76055         6.86562
     2019.62217        -2.95103         7.04472
     2019.62491        -5.16651         6.85783
     2019.62765        -3.85999         6.83966
     2019.63312         0.61905         7.30948
     2019.63586        -6.65543         7.02395
     2019.63860        15.09509         7.07197
     2019.64134        -6.99839         6.99930
     2019.64407        -4.32187         6.87989
     2019.64681       -10.46435         6.85523
     2019.64955        -8.20483         6.91364
     2019.65229        -1.77231         6.89547
     2019.65503        -4.51779         7.03693
     2019.65776        -2.38627         7.12778
     2019.66050         5.17925         7.05640
     2019.66324        -6.20323         6.94998
     2019.66598        -3.60471         6.94219
     2019.66872         3.56581         6.91883
     2019.67145        -5.47967         6.91364
     2019.67419        -9.57115         6.87081
     2019.67592       -27.99556        13.21988
     2019.67967         5.09689         7.34971
     2019.68240        -6.38959         6.92791
     2019.68514        -5.58007         6.89677
     2019.68788         9.13745         7.11610
     2019.69062         8.35797         6.92402
     2019.69336         1.63449         6.82409
     2019.69609        -6.21399         6.88249
     2019.69883        -6.52047         6.88379
     2019.70157        -8.63595         6.90325
     2019.70431        -1.84243         6.85913
     2019.70705         4.52509         6.90715
     2019.70978         6.17561         6.81500
     2019.71252         9.20113         6.86432
     2019.71526         8.19065         6.83447
     2019.71800         0.23617         7.03563
     2019.72073        -4.79831         7.08106
     2019.72347        -1.97579         6.85394
     2019.72621        -1.65927         6.89157
     2019.72895        -2.33175         6.85264
     2019.73169         5.28177         7.50935
     2019.73442        -0.82071         6.80721
     2019.73712         5.55077         7.09404
     2019.74309        -4.67973         8.66054
     2019.74538        -4.04263         6.83836
     2019.74808        -0.74214         7.02655
     2019.75087         1.54042         6.93051
     2019.75359         1.78293         7.13427
     2019.75633        -6.44155         6.85653
     2019.75906        -1.89903         6.75919
     2019.76180        -3.43551         6.78904
     2019.76454        -0.93499         6.77607
     2019.76728         1.18253         6.90715
     2019.77002        -4.05695         6.89157
     2019.77275        -4.27743         7.07457
     2019.77549        -1.31491         6.89806
     2019.77823        -1.15839         6.90585
     2019.78097         1.96613         6.87730
     2019.78371         2.52465         6.89287
     2019.78644        -4.91483         6.94998
     2019.78918        -5.03131         6.98891
     2019.79192        17.31621         6.92142
     2019.79466        12.71373         6.89677
     2019.79739         6.99325         6.87340
     2019.80013         7.63077         6.90715
     2019.80287        -6.00171         6.97853
     2019.80561         3.66581         6.97074
     2019.80835        -4.18167         6.87081
     2019.81108        -2.40215         6.86302
     2019.81382        -2.07163         6.89677
     2019.81656        -2.86911         6.95257
     2019.81930        -0.72459         6.96296
     2019.82203        -3.44907         6.92013
     2019.82477        -0.73655         6.90715
     2019.82751        -4.02603         6.94479
     2019.83025        -1.99251         7.09144
     2019.83299        -1.84099         7.07717
     2019.83572        -1.35847         6.92662
     2019.83846         3.91005         6.91493
     2019.84120         1.48357         6.87860
     2019.84394        -2.32091         7.13427
     2019.84668        -4.02639         6.94868
     2019.84941        -0.31487         6.96036
     2019.85215        -2.66135         6.95257
     2019.85489        -1.50183         6.94998
     2019.85763        -0.81231         6.95776
     2019.86036         0.13421         6.92662
     2019.86310        -4.40127         6.94608
     2019.86584         6.16125         7.10442
     2019.86858         0.68377         6.93570
     2019.87132         8.82729         7.05251
     2019.87405         2.71181         6.94219
     2019.87679         4.81333         7.05640
     2019.87953         8.38285         7.00708
     2019.88227        20.54137         6.94089
     2019.88501        10.66189         6.98502
     2019.88774         6.96541         7.06419
     2019.89048         8.74693         6.88638
     2019.89322         9.57145         6.87081
     2019.89596         5.72097         6.90325
     2019.89869         5.24049         6.88898
     2019.90143         7.34701         6.85264
     2019.90417         5.65553         6.86302
     2019.90691         3.40305         6.89287
     2019.90965         2.36157         6.86432
     2019.91238         2.04709         6.85653
     2019.91512         6.23561         6.86951
     2019.91786        14.40513         6.82928
     2019.92060         9.99865         6.85004
     2019.92334         9.66117         6.86562
     2019.92607         7.90869         6.89287
     2019.92881         2.70321         6.93700
     2019.93155        12.46673         6.81370
     2019.93429         6.51625         6.85783
     2019.93702         1.99577         6.86562
     2019.93976        -0.08771         6.90325
     2019.94250        -2.49419         6.90715
     2019.94524         3.95533         6.85523
     2019.94798         3.28285         6.81760
     2019.95071         0.12537         7.21863
     2019.95345        14.73889         6.91753
     2019.95619         7.99941         6.88379
     2019.95893        -2.19707         6.86691
     2019.96167        -0.74255         6.84874
     2019.96440         5.93197         7.00189
     2019.96611         8.67454        14.58262
     2019.96988        -0.64399         6.87600
     2019.97262        -2.29247         6.86691
     2019.97535        -0.90495         6.84355
     2019.97809        -2.60743         6.81760
     2019.98083        -2.29891         6.87989
     2019.98357        -4.66939         6.84355
     2019.98631        -1.12087         6.86172
     2019.98904        -5.70835         6.89028
     2019.99178        -0.50583         6.86043
     2019.99452        -1.62531         6.86951
     2019.99726        -0.42579         6.95517
     2020.00000        20.42173         6.90845
     2020.00273        -1.01875         6.93051
     2020.00547         3.56577         7.03693
     2020.00821        -2.96771         7.03044
     2020.01095        -0.00119         7.01227
     2020.01368       -10.03367         6.99670
     2020.01642        -2.70515         7.16023
     2020.01916        -1.78863         6.89806
     2020.02190        -3.32511         7.00578
     2020.02464        -5.13559         6.99540
     2020.02737         1.05893         6.87989
     2020.03011         4.28445         6.97593
     2020.03285        -7.97803         6.88898
     2020.03559        -5.26651         6.73453
     2020.03833        -4.76399         6.74621
     2020.04106        -6.47247         6.89806
     2020.04380        -7.74295         6.97853
     2020.04654        -2.36143         6.84745
     2020.04928        -6.51991         6.73713
     2020.05201        -6.91539         6.73843
     2020.05475        -1.23887         6.85783
     2020.05749       -11.66535         6.87211
     2020.06023         5.20017         6.83447
     2020.06297         6.33669         6.83836
     2020.06570        -3.22079         6.80202
     2020.06844        13.66373         6.88638
     2020.07118         4.50625         6.86172
     2020.07392         9.85577         6.86951
     2020.07666        -1.50371         6.82019
     2020.07939        -0.68519         6.85783
     2020.08213        -1.67967         6.89028
     2020.08487        -9.44915         6.85134
     2020.08761         2.13837         6.84485
     2020.09034        -1.47711         6.82019
     2020.09308        -5.47459         6.84485
     2020.09582        -2.69007         6.86043
     2020.09856        -1.42355         6.87470
     2020.10130        -6.71403         6.92013
     2020.10403        -3.59251         6.89028
     2020.10677        -4.41299         6.86302
     2020.10951        -9.90547         6.85264
     2020.11225       -11.09295         6.83577
     2020.11498        -4.72943         6.83057
     2020.11772        -9.35191         6.96296
     2020.12046       -11.19739         7.10183
     2020.12320       -12.14887         6.86951
     2020.12594        -4.60735         6.80462
     2020.12867       -10.47683         6.80851
     2020.13141       -11.00831         6.77477
     2020.13415        -9.46779         6.79813
     2020.13689        -8.76027         7.02395
     2020.13963        -4.56775         7.04342
     2020.14236        -5.67123         6.84874
     2020.14510        -2.55171         6.86691
     2020.14784        -9.97419         6.83447
     2020.15058       -11.62367         6.85653
     2020.15331       -11.54615         6.88898
     2020.15605       -11.58263         6.87470
     2020.15879        -5.20411         6.87081
     2020.16153        -4.82759         6.86691
     2020.16427        -1.96407         6.84874
     2020.16700        -5.71255         6.91234
     2020.16974        -1.84303         6.84745
     2020.17248        -9.35251         6.90585
     2020.17522        -7.56799         6.84226
     2020.17796        -1.13547         6.81240
     2020.18069        -5.97695         6.83447
     2020.18343        -3.93743         6.80981
     2020.18617        -4.96891         6.79424
     2020.18891        -7.51739         6.99540
     2020.19164        -6.28287         6.97204
     2020.19438        -6.88535         6.95127
     2020.19712        -5.55083         6.98502
     2020.19986        -3.43631         6.93440
     2020.20260        -5.17779         6.93830
     2020.20533        -8.60127         6.94608
     2020.20807        -2.42875         6.93570
     2020.21081        -5.46823         6.96555
     2020.21355        -5.72971         7.54180
     2020.21629        -4.28319         7.29131
     2020.21902        -7.15367         7.15633
     2020.22176        -6.68215         6.87860
     2020.22450        -2.96563         6.89936
     2020.22724        -1.15111         6.92921
     2020.22997        -3.08659         6.92662
     2020.23271        -3.31207         6.90845
     2020.23545        -3.07455         6.92791
     2020.23819        -4.10103         6.91493
     2020.24093         0.77849         6.93570
     2020.24366         4.43701         6.95257
     2020.24640        11.88753         6.95387
     2020.24914        -9.28395         6.93959
     2020.25188        -8.55043         6.93440
     2020.25462        -7.65391         6.90974
     2020.25735        -1.83039         6.94608
     2020.26009         6.56113         6.93181
     2020.26283         3.94765         6.96166
     2020.26557        -7.26683         6.95517
     2020.26830        -3.41631         6.92662
     2020.27104        -6.73879         6.91493
     2020.27378        -6.63127         6.96815
     2020.27652        -5.54175         6.96166
     2020.27926        -5.05823         6.99930
     2020.28199        -5.93071         7.01357
     2020.28747        -9.09467         7.02785
     2020.29021        -5.46715         6.94479
     2020.29295        -5.98263         6.96036
     2020.29568        -0.83111         6.95776
     2020.29842        -1.34159         6.93700
     2020.30116         0.17093         6.93051
     2020.30390         2.23345         6.90845
     2020.30663        -0.89703         6.96555
     2020.30937         1.50849         7.18748
     2020.31211        -6.15899         7.12000
     2020.31485         4.64553         6.93181
     2020.31759         6.75105         6.83057
     2020.32032         3.80157         6.90715
     2020.32306         1.27009         6.83317
     2020.32580        -4.36339         6.84745
     2020.32854         2.21513         6.88638
     2020.33128        -8.57035         6.81760
     2020.33401         4.01317         6.83187
     2020.33675         9.92969         6.84096
     2020.33949        -6.20479         6.83836
     2020.34223        -8.64327         6.99410
     2020.34770        -9.62723         6.81889
     2020.35044        -4.62271         6.91364
     2020.35318        -9.29119         6.98113
     2020.35592        -4.07667         6.98632
     2020.35865        -4.62215         6.83706
     2020.36139        -2.16463         6.83447
     2020.36413         4.57389         6.79294
     2020.36687         9.73941         6.93570
     2020.36961        -2.28707         6.94868
     2020.37234        -3.49255         6.87211
     2020.37508        11.04797         6.92921
     2020.37782         6.97349         6.75919
     2020.38056         4.54301         6.74102
     2020.38329         4.57653         6.78126
     2020.38603        -9.88995         6.77607
     2020.38877        -5.43043         6.97204
     2020.39151        -9.64791         6.77087
     2020.39425        -8.87539         6.73453
     2020.39671        -5.14512         7.41980
     2020.39972        -8.48535         6.80072
     2020.40246        -0.49783         6.75790
     2020.40520        -6.38431         6.93570
     2020.40794        -7.94279         6.87860
     2020.41067         0.13173         6.96425
     2020.41341        -2.16975         6.78645
     2020.41615        -5.48523         6.79553
     2020.41889        -8.37571         6.79553
     2020.42162        -8.81219         6.81240
     2020.42436        -7.81267         7.05510
     2020.42710        -7.66615         7.07587
     2020.42984        -2.21763         6.94868
     2020.43258        -1.23711         6.90455
     2020.43531        -8.28559         6.92272
     2020.43805       -13.17507         6.91623
     2020.44079        -3.29855         6.93181
     2020.44353         7.37597         7.07587
     2020.44626       -10.66851         6.82149
     2020.44900        -3.90499         6.88379
     2020.45174         4.25553         6.79424
     2020.45448        -3.48895         6.80332
     2020.45722         6.86657         6.72285
     2020.45995         3.92709         6.77736
     2020.46269        -8.27139         6.77736
     2020.46543        -3.92887         6.75660
     2020.46817        -7.42935         6.83706
     2020.47091        -0.19583         6.76179
     2020.47364        -5.24931         6.76049
     2020.47638        -3.22979         6.78255
     2020.47912        -2.06627         6.95517
     2020.48186         1.84625         6.76049
     2020.48459        -6.51823         6.90715
     2020.48733        -7.95571         7.22901
     2020.49007        -2.95319         6.96296
     2020.49281        -0.80967         6.96555
     2020.49555        -4.02315         6.89028
     2020.49828        -4.25963         6.75660
     2020.53388        -0.79787         6.91623
     2020.53661        -4.28535         6.91364
     2020.53935        -6.43383         6.90455
     2020.54209        -7.61231         7.04472
     2020.54483        -2.18079         6.89677
     2020.54757        -3.11827         6.92791
     2020.55030        -0.25675         6.96166
     2020.55304        -2.94123         6.99930
     2020.55578         2.01229         6.95776
     2020.55852         4.58581         7.06029
     2020.56125         4.55833         6.90325
     2020.56399         1.28785         6.92402
     2020.56673        -1.99263         6.89028
     2020.56947         2.50789         6.88249
     2020.57221         1.81041         7.22382
     2020.57494         3.51293         7.04342
     2020.57768         0.33045         7.01227
     2020.58042        -2.40403         6.96166
     2020.58316        -6.06051         6.95776
     2020.58590        -3.18299         7.03174
     2020.58863         0.44153         7.01227
     2020.59137        -2.22895         6.94738
     2020.59411        10.03557         7.05510
     2020.59685         9.22909         7.40552
     2020.59958         4.37361         7.02785
     2020.60232         0.47613         6.96166
     2020.60506         4.84465         6.92142
     2020.60780        -0.73283         6.86172
     2020.61054         2.69569         6.93959
     2020.61327         5.04221         6.95776
     2020.61601        -0.56127         6.93440
     2020.61875        -3.84475         6.92532
     2020.62149         2.46477         6.93830
     2020.62423         0.40429         7.04083
     2020.62696         0.45281         6.98372
     2020.62970        -4.18067         6.95906
     2020.63244         2.46785         6.99151
     2020.63518         4.77237         7.03823
     2020.63791         0.30689         7.10442
     2020.64065         1.60241         7.03044
     2020.64339        -2.23307         6.99800
     2020.64613         0.51645         7.03304
     2020.64887        -1.03403         7.00578
     2020.65434        -2.18899         6.93310
     2020.65708         2.03053         6.91753
     2020.65982         1.67705         6.92142
     2020.66256         0.52857         6.98113
     2020.66529         6.21009         6.96166
     2020.66803         5.18061         6.92662
     2020.67077         1.99213         6.93181
     2020.67351         2.87265         6.93310
     2020.67624         1.21717         6.92272
     2020.67898        -1.24931         6.97464
     2020.68172        -3.42979         6.94349
     2020.68446        -2.67327         7.04732
     2020.68720         3.22425         6.98372
     2020.68993         0.09477         6.96425
     2020.69267         0.05129         7.07587
     2020.69541         0.57981         7.29780
     2020.69815        -0.09867         7.05640
     2020.70089         2.37485         6.89157
     2020.70362        -1.80463         6.95647
     2020.70636        -0.24711         7.29910
     2020.70910         0.63741         7.28872
     2020.71184        -2.42807         7.08366
     2020.71457         2.52145         7.13297
     2020.71731        11.88697         7.14206
     2020.72005         6.54049         7.15374
     2020.72279        -2.58599         7.00838
     2020.72553         5.27853         7.12778
     2020.72826         0.75805         7.09404
     2020.73100        12.05957         7.07976
     2020.73374         8.92709         6.98242
     2020.73648        16.62761         7.01487
     2020.73921         3.96013         6.98761
     2020.74195         2.75965         6.94479
     2020.74469         1.21217         6.97723
     2020.74743         0.62369         7.02785
     2020.75017         0.42421         6.95127
     2020.75290        -3.72927         6.98242
     2020.75564        -4.23575         6.88768
     2020.75838         4.63477         6.88768
     2020.76112         5.72829         6.95776
     2020.76386         4.29681         6.91623
     2020.76659         6.47033         6.82409
     2020.76933         7.40885         6.98891
     2020.77207         9.48537         6.87340
     2020.77481        12.33789         6.93051
     2020.77754        11.69641         7.01487
     2020.78028         5.32593         6.93830
     2020.78302         8.10945         6.89287
     2020.78576         9.03197         6.95647
     2020.78850         1.33249         6.96685
     2020.79123         2.10601         6.94998
     2020.79397         4.58753         6.96685
     2020.79671         3.63905         6.93959
     2020.79945         6.25457         6.92402
     2020.80219         3.13009         7.11221
     2020.80492         1.54061         6.97204
     2020.80766         8.54613         7.01876
     2020.81040         5.81165         7.02395
     2020.81314         7.36517         6.96944
     2020.81587         3.04569         6.91104
     2020.81861         6.97321         6.96296
     2020.82135        10.01173         6.99670
     2020.82409         5.69825         6.96166
     2020.82683         5.73477         7.02136
     2020.82956         3.67829         7.08366
     2020.83230        15.04381         7.05900
     2020.83504         6.94433         7.04472
     2020.83778         6.54585         6.84355
     2020.84052         8.74637         6.90455
     2020.84325         4.37189         7.07457
     2020.84599         7.47241         7.07457
     2020.84873        23.46193         6.95387
     2020.85147         7.66745         6.87860
     2020.85420        13.47997         6.83057
     2020.85694        13.80549         6.98113
     2020.85968        13.37401         6.93440
     2020.86242        10.47653         6.97593
     2020.86516        13.20805         7.13038
     2020.86789        18.73357         7.14595
     2020.87063        19.93109         6.90585
     2020.87611        28.54613         7.11091
     2020.87885        15.99565         7.11740
     2020.88158        22.84617         7.09144
     2020.88432         7.52869         6.97334
     2020.88706         3.97821         7.20955
     2020.88980         4.00673         7.02785
     2020.89253         7.61525         6.93570
     2020.89527        10.63577         7.11351
     2020.89801         7.78029         7.19267
     2020.90075        12.43481         6.98891
     2020.90349         6.37633         6.92142
     2020.90622         2.21885         6.95776
     2020.90896         7.01737         7.20306
     2020.91170         5.31089         7.20565
     2020.91444        12.81541         7.05121
     2020.91718         2.09393         6.93700
     2020.91991        -0.17955         6.92921
     2020.92265         0.51997         6.99410
     2020.92539        -0.30351         6.94479
     2020.92813        -2.01199         6.93959
     2020.93086         3.64353         6.94349
     2020.93360         2.36205         6.98372
     2020.93634        -0.89843         6.94738
     2020.93908         4.65609         6.96166
     2020.94182         0.26161         6.94479
     2020.94455        -0.09487         6.95257
     2020.94729        -2.38735         6.94998
     2020.95003        -3.48983         6.98372
     2020.95277       -19.97031         6.96036
     2020.95551        -3.23379         6.97593
     2020.95824       -11.76827         6.94479
     2020.96098        -0.36175         6.96685
     2020.96372        -3.83623         6.96815
     2020.96646        -0.53771         7.07068
     2020.96919        15.75481         7.02395
     2020.97193         7.48933         6.88119
     2020.97467         3.01685         7.02915
     2020.97741        -6.03263         7.06289
     2020.98015        -4.30711         7.19787
     2020.98288        -0.35559         7.03434
     2020.98562         8.16993         6.86172
     2020.98836         4.17145         6.85913
     2020.99110         1.81697         6.88249
     2020.99384         1.98449         6.84096
     2020.99657         5.73501         6.84226
     2020.99931         9.32153         6.85653
     2021.00205         2.83505         6.90455
     2021.00479        12.21157         6.90066
     2021.00752        17.35609         6.83706
     2021.01026        18.49161         6.88119
     2021.01300         2.51313         6.86951
     2021.01574         6.78865         6.93830
     2021.01848         6.82117         6.87470
     2021.02121        -1.48331         6.85653
     2021.02395         2.54621         6.84355
     2021.02669        -2.31927         6.82409
     2021.02943         0.08425         6.86951
     2021.03216        12.67877         6.86562
     2021.03490        20.78429         6.96555
     2021.03764        -1.24619         6.87081
     2021.04038         8.58733         7.00059
     2021.04312         5.26285         6.95647
     2021.04585        -3.26963         7.03434
     2021.04859        -0.71311         6.93570
     2021.05133        -0.45059         6.93959
     2021.05407         2.13093         7.20825
     2021.05681         1.99045         7.11221
     2021.05954        -2.40903         6.93310
     2021.06228         1.41449         6.93440
     2021.06502         0.97701         6.93181
     2021.06776         4.68753         6.84226
     2021.07049         3.19405         6.89547
     2021.07323         1.27257         6.84226
     2021.07597        -3.66991         6.84874
     2021.07871        -0.53039         6.88638
     2021.08145         1.43813         6.81370
     2021.08418        -2.46035         6.86432
     2021.08692        -5.92283         6.84615
     2021.08966         6.44669         6.87600
     2021.09240        -2.02579         6.90715
     2021.09514        -6.09327         7.04991
     2021.09787        -8.37575         7.05900
     2021.10061        -5.85923         6.85913
     2021.10335        -5.58671         6.92142
     2021.10609        -9.67619         6.90974
     2021.10882        -6.56267         6.89287
     2021.11156        -6.27615         6.89677
     2021.11430        -4.48963         6.90715
     2021.11704         1.62589         6.90715
     2021.11978         6.30541         6.86691
     2021.12251         0.71093         6.92791
     2021.12525         9.62845         6.99930
     2021.12799        -6.46103         6.87470
     2021.13073        -7.67551         6.89806
     2021.13347        -6.40699         6.98891
     2021.13620         4.89753         6.93570
     2021.13894        -6.16795         6.89028
     2021.14168        -4.47443         6.89806
     2021.14442        -6.08291         6.96685
     2021.14715        -0.21039         6.97983
     2021.14989        -6.34587         6.85523
     2021.15263        -3.47535         7.04083
     2021.15537        -0.85683         7.06289
     2021.15811        -0.80431         7.17710
     2021.16084        -0.29179         7.01227
     2021.16358        -1.57727         7.00968
     2021.16632         0.57425         7.04732
     2021.16906         1.28777         6.89157
     2021.17180        -0.94471         6.85264
     2021.17453        -6.15819         7.07327
     2021.17727        -2.82267         7.04861
     2021.18001        -2.38315         6.97464
     2021.18275        -4.76163         7.26276
     2021.18548        -5.14111         6.84485
     2021.18822        -5.38359         6.79813
     2021.19096         0.29193         6.84874
     2021.19370        -4.16655         6.95647
     2021.19644        -7.93803         6.88898
     2021.19917        -7.32051         6.88638
     2021.20191        -2.22499         6.82409
     2021.20465        -1.35647         6.83706
     2021.20739        -4.24695         6.89028
     2021.21013         2.88657         7.09144
     2021.21286        -2.26791         7.01617
     2021.21560         1.01961         6.84096
     2021.21834        -5.11587         6.81370
     2021.22108        -5.26335         6.90455
     2021.22381        -6.65383         6.91104
     2021.22655        -0.00931         6.90455
     2021.22929         0.83021         6.83317
     2021.23203         1.00273         6.77736
     2021.23477        -7.30575         6.87211
     2021.23750        -3.96923         6.92402
     2021.24024        -4.62871         6.84745
     2021.24298        -0.61319         6.84226
     2021.24572        -7.05667         6.82279
     2021.24846        -4.99115         7.01617
     2021.25119        -1.83463         6.88379
     2021.25393        -1.37311         6.92921
     2021.25667        -1.58059         6.89287
     2021.25941        -0.15207         6.83577
     2021.26214        -0.34655         6.86951
     2021.26488         2.14597         6.89028
     2021.26762        -3.81751         6.97074
     2021.27036        -0.12199         6.94219
     2021.27310        -2.85547         6.85913
     2021.27583        -1.66995         6.88768
     2021.27857        -1.12443         7.02915
     2021.28131        -2.44291         6.94868
     2021.28405         3.46861         7.00449
     2021.28679         2.23313         7.00059
     2021.28952         1.17665         7.02266
     2021.29226        -0.48683         7.01876
     2021.29500         3.64369         7.00059
     2021.29774         2.75021         7.17580
     2021.30047         0.61073         7.09534
     2021.30321         4.03225         6.99800
     2021.30595         6.10577         7.17970
     2021.30869        12.70429         7.14855
     2021.31143        11.19281         6.88119
     2021.31416         8.74533         6.89287
     2021.31690         9.92085         6.91623
     2021.31964         7.16937         7.04602
     2021.32238        -0.75011         7.06289
     2021.32512        -2.25659         6.87340
     2021.32785        -0.91907         6.93181
     2021.33059        10.90345         6.98761
     2021.33333         9.97197         6.97983
     2021.33607         2.08249         6.91234
     2021.33880        -0.97999         6.94349
     2021.34154        -1.30147         6.87989
     2021.34428        -0.92295         7.15893
     2021.34702        -9.98743         7.00189
     2021.34976        -7.64991         6.92662
     2021.35249         0.67761         6.91623
     2021.35523         4.27613         6.91623
     2021.35797        -2.30335         6.93051
     2021.36071        -3.11083         6.98113
     2021.36344        -4.33131         6.99540
     2021.36618        -5.49679         6.95387
     2021.36892        -3.74127         6.97853
     2021.37166        -0.01175         6.95127
     2021.37440        -0.62723         6.95387
     2021.37713        -3.25471         6.98502
     2021.37987        -0.81619         7.15763
     2021.38261        -1.39567         7.36269
     2021.38535        -0.19015         7.19916
     2021.38809         6.38937         7.08755
     2021.39082         9.73189         6.99930
     2021.39356        -6.49659         6.97074
     2021.39630         4.72493         7.02006
     2021.39904        -0.27855         7.01617
     2021.40177         1.67097         7.09534
     2021.40451         0.68649         7.13946
     2021.40725        -2.01299         7.01617
     2021.40999         0.80953         6.96555
     2021.41273        -1.29695         6.97074
     2021.41546        -2.96343         7.04472
     2021.41820        -2.70091         7.05900
     2021.42094        12.02261         7.12519
     2021.42368         3.14213         7.08106
     2021.42642         2.37865         7.09923
     2021.42915         5.56417         7.03823
     2021.43189         2.49569         7.03434
     2021.43463         4.76221         7.00189
     2021.43737         1.30073         6.99930
     2021.44010         3.35825         7.09274
     2021.44284         0.54777         7.05251
     2021.44558        11.70629         7.15114
     2021.44832         0.33981         7.20046
     2021.45106         4.15533         7.30948
     2021.45379         3.91785         7.28872
     2021.45653         1.33337         7.17061
     2021.45927         6.53689         6.98372
     2021.46201         1.64441         7.03693
     2021.46475        -2.07707         6.99151
     2021.46748        -1.64755         7.04472
     2021.47022         4.93197         7.14855
     2021.47296        14.91849         7.44186
     2021.47570         2.83301         7.32116
     2021.48117        -1.36995         7.04472
     2021.48391        -3.37143         7.00189
     2021.48665        -1.95991         6.99930
     2021.48939        -2.49339         6.97853
     2021.49212         0.64713         7.06419
     2021.49486         1.78865         7.07197
     2021.49760         9.09517         7.40812
     2021.50034         1.37169         7.16282
     2021.50308         1.98621         7.15763
     2021.50581        -2.51127         7.07327
     2021.50855        -2.21475         7.04342
     2021.51129         4.07077         7.04861
     2021.51403         3.07229         7.03304
     2021.51676         1.03781         7.01746
     2021.51950         4.49333         7.19267
     2021.52224        -0.21515         7.05770
     2021.52498         0.86437         6.99281
     2021.52772         3.21289         7.03823
     2021.53045         0.81241         7.01876
     2021.53319         0.41493         7.07846
     2021.53593        -1.68655         7.36010
     2021.53867        10.22097         7.51065
     2021.54141         2.40749         7.26665
     2021.54414        -1.14499         7.28612
     2021.54688        -7.42047         7.17580
     2021.54962        -3.27495         7.26276
     2021.55236         7.25057         7.11221
     2021.55509         0.46209         7.21863
     2021.55783        -2.72039         7.20306
     2021.56057        -2.40887         7.04991
     2021.56331         1.61765         6.99151
     2021.56605         2.14617         7.10702
     2021.56878         1.89569         7.49507
     2021.57152         8.91021         7.22253
     2021.57426        -9.19427         7.83771
     2021.57700         8.74525         7.23810
     2021.57974         3.41177         7.04212
     2021.58247        -5.76971         7.12129
     2021.58521         0.70481         7.21863
     2021.58795         1.76333         7.10961
     2021.59069         0.93185         7.08885
     2021.59616         3.99889         7.15244
     2021.59890         0.24041         6.97464
     2021.60164         2.52093         7.28352
     2021.60438         3.06245         7.04342
     2021.60711         1.20397         7.03563
     2021.60985         1.78449         6.95127
     2021.61259         4.33601         6.97593
     2021.61533       -10.05647         7.09014
     2021.61807        -0.28895         7.03044
     2021.62080        -1.29943         7.08755
     2021.62354         1.84609         6.99021
     2021.62628         2.64661         7.25367
     2021.62902         3.48513         6.98891
     2021.63175         0.04365         7.01617
     2021.63449         8.36217         6.92791
     2021.63723         3.71769         7.29391
     2021.63997         3.86121         7.05640
     2021.64271         2.19473         7.09663
     2021.64544        -0.06475         6.97074
     2021.64818         4.75377         6.94479
     2021.65092         6.91629         6.92402
     2021.65366         9.42781         7.06159
     2021.65639         1.11333         6.95257
     2021.65913        -2.84115         6.92532
     2021.66187         3.79737         6.94479
     2021.66461         6.58189         6.91104
     2021.66735         4.91041         6.90196
     2021.67008        -0.41307         7.06159
     2021.67282         3.84445         7.19008
     2021.67556         2.79097         7.28872
     2021.67830         1.37449         7.09404
     2021.68104         5.14901         6.88898
     2021.68377         8.50453         6.96036
     2021.68651         5.88505         7.15504
     2021.68925        11.39257         6.97723
     2021.69199        12.17309         7.12519
     2021.69472        12.50761         6.99151
     2021.69746         2.71113         6.96685
     2021.70020        13.49965         7.10312
     2021.70294         3.47517         6.93051
     2021.70568         9.76869         6.94479
     2021.70841         7.38021         6.97723
     2021.71115        10.36273         6.97593
     2021.71389        14.75325         7.18099
     2021.71663        19.20777         7.00968
     2021.71937         9.12629         6.94998
     2021.72210         1.38381         6.93700
     2021.72484         1.41433         6.93959
     2021.72758         9.87685         6.93310
     2021.73032        -1.61263         7.33284
     2021.73305         5.80189         6.95776
     2021.73579        10.63641         6.95906
     2021.73853        20.67193         7.01487
     2021.74127        18.49345         6.92402
     2021.74401        13.07697         6.99410
     2021.74674         9.08949         7.01098
     2021.74948        10.08601         7.04861
     2021.75222         7.17153         7.02266
     2021.75496         6.83705         7.00708
     2021.75770         8.20757         6.97723
     2021.76043        13.97909         7.01487
     2021.76317        10.67061         7.17191
     2021.76591         7.10313         6.97464
     2021.76865         9.28065         6.97853
     2021.77138        11.37617         6.93830
     2021.77412        11.65969         7.10961
     2021.77686         8.09821         7.01876
     2021.77960        11.32873         7.02655
     2021.78234        10.43225         6.96555
     2021.78507        15.75677         6.94868
     2021.78781        13.42529         6.94868
     2021.79055         8.09281         6.99021
     2021.79329        11.77033         6.98761
     2021.79603        19.23285         6.94479
     2021.79876        12.08837         6.90845
     2021.80150        19.75089         7.10312
     2021.80424        16.24941         7.23421
     2021.80698        24.50093         6.99021
     2021.80971        23.88645         6.96685
     2021.81245        31.83997         7.15763
     2021.81519        22.17849         6.90715
     2021.81793        21.38901         6.92791
     2021.82067         1.94153         7.12129
     2021.82340        18.93205         7.09404
     2021.82614        19.47557         7.10831
     2021.82888        15.49009         7.03174
     2021.83162        25.47161         7.02785
     2021.83436        25.08713         7.07717
     2021.83709        25.89765         7.09144
     2021.83983         4.16917         7.11870
     2021.84257        19.10469         7.24848
     2021.84531        14.18721         7.02655
     2021.84804        22.01573         7.07717
     2021.85078        11.83225         7.02785
     2021.85352         5.48877         7.00319
     2021.85626        10.81529         7.01227
     2021.85900         8.35381         6.93310
     2021.86173        19.14733         6.95647
     2021.86447        12.95185         7.18229
     2021.86721        12.54437         7.23550
     2021.86995        -0.30211         7.29910
     2021.87269         3.74941         7.11221
     2021.87542        11.45293         7.10053
     2021.87816         1.56745         6.95906
     2021.88090         1.63897         6.95906
     2021.88364        21.90049         7.03044
     2021.88637        -0.71399         6.92142
     2021.88911        -1.95347         6.91493
     2021.89185        -0.25995         6.93310
     2021.89459         6.34857         7.06808
     2021.89733         1.12409         6.95776
     2021.90006        -4.01639         6.92532
     2021.90280         5.55513         6.99930
     2021.90554        24.97465         6.92532
     2021.90828        16.58017         6.97723
     2021.91102         6.10069         6.97593
     2021.91375         4.04221         6.97464
     2021.91649         7.42973         6.96425
     2021.91923        10.33925         7.08495
     2021.92197        -1.32823         7.34582
     2021.92470        -4.59371         7.13297
     2021.92744         3.64481         7.17191
     2021.93018        -4.63167         7.16282
     2021.93292        21.70485         7.31986
     2021.93566        27.71137         7.26276
     2021.93839         7.20389         7.26406
     2021.94113        11.88041         7.37048
     2021.94387        16.75293         7.15763
     2021.94661         7.68745         7.12908
     2021.94935        10.37297         7.07457
     2021.95208        10.55749         7.07068
     2021.95482         6.16301         7.26925
     2021.95756         6.93753         7.27314
     2021.96030        10.03205         7.26406
     2021.96303         8.20157         7.23421
     2021.96577        14.65109         7.24978
     2021.96851         9.81161         7.27963
     2021.97125         5.75213         7.30169
     2021.97399        13.38365         7.31467
     2021.97672        10.21217         7.23810
     2021.97946        13.85469         7.21474
     2021.98220        13.53521         7.22512
     2021.98494        17.27773         7.22772
     2021.98767        10.59925         7.21474
     2021.99041        11.37877         7.13297
     2021.99315        14.84429         7.09404
     2021.99589        15.25181         7.10572
     2021.99863         4.25733         7.05640
     2022.00136         6.08385         7.11610
     2022.00410         3.50737         7.16802
     2022.00684         0.39289         7.16023
     2022.00958         5.89841         7.13816
     2022.01232        13.03593         7.18489
     2022.01505        18.61145         7.30559
     2022.01779        10.83897         7.23161
     2022.02053         5.39349         7.17191
     2022.02327        -0.76899         7.54050
     2022.02600        -5.00347         7.17450
     2022.02874        -5.77595         7.15633
     2022.03148        -5.46643         7.19008
     2022.03422         3.07209         7.13038
     2022.03696        -0.93039         7.09144
     2022.03969        -9.06587         7.12000
     2022.04243         0.62365         7.08236
     2022.04517         1.20417         7.08755
     2022.04791         0.70369         7.12259
     2022.05065         5.18121         7.08495
     2022.05338         8.53473         7.12778
     2022.05612       -10.70875         7.12389
     2022.05886       -13.16723         7.08885
     2022.06160        -7.38371         7.14985
     2022.06433        -0.94519         7.13297
     2022.06707        -5.03067         7.08495
     2022.06981        -0.50015         7.11480
     2022.07255        -8.13263         6.99021
     2022.07529        -1.67711         7.00838
     2022.07802         0.00241         7.01227
     2022.08076         3.99593         6.98632
     2022.08350         5.68045         7.03693
     2022.08624         1.33897         6.97723
     2022.08898         1.61549         7.01746
     2022.09171         1.05701         6.99670
     2022.09445        -4.76547         6.96685
     2022.09719        -6.09095         6.95127
     2022.09993        -4.01543         7.13038
     2022.10266        -8.83791         7.14336
     2022.10540         0.74061         7.08495
     2022.10814        -0.30787         7.14206
     2022.11088         6.12565         6.96425
     2022.11362         2.46917         6.96036
     2022.11635         5.58769         6.95387
     2022.11909        -0.42079         7.01227
     2022.12183         2.80273         7.11870
     2022.12457         5.30025         7.15504
     2022.12731        -3.30923         6.99151
     2022.13004        -3.43971         6.96036
     2022.13278        -1.82719         6.96815
     2022.13552        -0.14667         6.97593
     2022.13826         5.15585         7.00319
     2022.14099        -0.63263         6.97074
     2022.14373        -1.67711         6.91104
     2022.14647         3.55341         6.92402
     2022.14921         2.00093         7.30948
     2022.15195        -1.72955         7.29131
     2022.15468        -1.09903         6.96425
     2022.15742         2.05649         7.00059
     2022.16016         7.39601         6.97334
     2022.16290        11.31053         7.02266
     2022.16564        12.97705         7.01746
     2022.16837        14.20257         6.98761
     2022.17111         2.17009         6.95127
     2022.17385         9.20361         7.00319
     2022.17659         5.39013         6.96425
     2022.17932        -2.41935         6.99800
     2022.18206        -7.75283         7.02655
     2022.18480        -0.19731         6.95387
     2022.18754         2.93321         7.07197
     2022.19028        -0.15127         7.11480
     2022.19301         2.83125         7.01357
     2022.19575         6.26777         7.00968
     2022.19849        -0.58071         7.11351
     2022.20123        17.89781         7.00968
     2022.20397         8.92733         7.00189
     2022.20670        -1.58415         7.14985
     2022.20944         0.76837         7.15244
     2022.21218         5.58889         7.01617
     2022.21492        -0.96659         6.98113
     2022.21765         0.28293         7.01617
     2022.22039         8.56245         6.96944
     2022.22313        -4.17103         6.99670
     2022.22587         2.50549         7.17450
     2022.22861         1.45601         7.13297
     2022.23134         4.51853         7.03434
     2022.23408         7.41705         6.98502
     2022.23956         8.36909         6.97723
     2022.24230         5.21561         6.99410
     2022.24503         5.99713         6.97334
     2022.24777         8.09965         7.03693
     2022.25051         0.31317         6.99540
     2022.25325         2.58669         7.01098
     2022.25598        15.64321         7.06029
     2022.25872         6.66773         7.10312
     2022.26146        -0.62875         7.07976
     2022.26420         1.42477         7.07068
     2022.26694         1.45929         7.23031
     2022.26967         3.94681         7.10831
     2022.27241        10.32433         7.03823
     2022.27515        13.80185         7.16542
     2022.27789         2.10237         7.05121
     2022.28062         2.47589         7.09274
     2022.28336         1.12141         7.05251
     2022.28610         5.30493         7.24069
     2022.28884        -6.30255         7.17321
     2022.29158        -2.97503         7.00968
     2022.29431        -3.34351         7.04083
     2022.29705        12.57001         6.99540
     2022.29979         9.63853         6.99151
     2022.30527         5.21157         7.08495
     2022.30800        -2.20291         6.96425
     2022.31074         0.07161         7.04212
     2022.31348        -0.33387         7.02266
     2022.31622         0.17265         7.00059
     2022.31895       -17.10683         7.18229
     2022.32169         1.12069         7.19916
     2022.32443         0.15821         6.97723
     2022.32717        10.13473         7.01487
     2022.32991         3.89125         7.00449
     2022.33264         2.06677         7.19657
     2022.33538        -2.69671         7.21863
     2022.33812         0.08681         7.24589
     2022.34086         9.66033         6.98242
     2022.34360        19.96485         7.13297
     2022.34633         7.78537         6.98242
     2022.34907         2.29689         6.98242
     2022.35181         2.87741         6.93830
     2022.35455         0.20893         7.00578
     2022.35728        -1.36555         6.94219
     2022.36002         3.69097         6.97074
     2022.36276         4.78949         7.02525
     2022.36550        13.85801         6.99800
     2022.36824        -3.09347         6.96166
     2022.37097        -3.26595         6.96944
     2022.37371        -4.65243         6.92142
     2022.37645        -4.42891         7.02136
     2022.37919        -1.72439         7.14465
     2022.38193        -3.73087         7.08885
     2022.38466        -1.17235         6.95517
     2022.38740       -13.23483         6.98891
     2022.39014        -4.03131         6.95387
     2022.39288        -2.04379         6.99410
     2022.39561        -2.62827         6.96166
     2022.39835        -4.23875         6.96555
     2022.40109         7.44377         7.06029
     2022.40383        14.77929         6.95517
     2022.40657         9.34081         6.98242
     2022.40930        -6.72167         7.05121
     2022.41204         0.99085         7.04472
     2022.41478        -3.57063         6.92662
     2022.41752         0.11189         7.16153
     2022.42026        13.83241         7.11740
     2022.42299        14.65893         6.94608
     2022.42847         8.19897         7.09014
     2022.43121         6.48549         7.07068
     2022.43394         4.10701         7.15763
     2022.43668        -3.75347         6.90325
     2022.43942        -2.19595         6.98632
     2022.44216        24.45757         7.12389
     2022.44763        12.17961         6.90325
     2022.45037        -3.05987         6.83447
     2022.45311        -7.44235         6.92142
     2022.45585        -3.07083         6.92402
     2022.45859       -13.47731         6.99540
     2022.46132        11.50221         6.90974
     2022.46406         2.97373         6.89677
     2022.46680         6.25625         6.89936
     2022.46954        -3.34923         6.92662
     2022.47227       -14.49371         6.92532
     2022.47501         4.96581         6.94868
     2022.47775        -3.28967         7.19267
     2022.48049        -2.15315         6.87860
     2022.48323         5.13637         6.92921
     2022.48596         6.29989         6.96166
     2022.48870         1.53641         7.01357
     2022.49144        -8.47107         7.00189
     2022.49418         1.55545         7.20565
     2022.49692        -0.39703         6.92142
     2022.49965        -1.94751         7.01098
     2022.50239       -12.98899         6.98242
     2022.50513         7.53153         7.45744
     2022.50787        16.23205         7.40552
     2022.51060         3.16357         7.18748
     2022.51334        -5.65591         7.02395
     2022.51608        -2.09339         7.10702
     2022.51882        -3.60187         7.07068
     2022.52156        -9.59335         7.10572
     2022.52429        -2.56183         7.00189
     2022.52703         0.88969         6.95647
     2022.52977         5.78921         7.13297
     2022.53251        -0.87227         7.10702
     2022.53525        -4.43275         7.17970
     2022.53798        -6.64723         6.98891
     2022.54072        -7.54971         7.11091
     2022.54346        -2.49119         7.00189
     2022.54620        -1.51267         7.02136
     2022.54893        -1.99015         7.03823
     2022.55167        -2.02763         7.26276
     2022.55441        -1.94211         6.99540
     2022.55715        -0.49859         7.07327
     2022.55989        -4.48107         7.03563
     2022.56262        -3.27655         7.02006
     2022.56536       -10.41803         6.99281
     2022.56810         2.62449         7.06938
     2022.57084         1.15901         7.00968
     2022.57357         3.62053         7.22642
     2022.57631        -8.01295         7.01357
     2022.57905        -2.62843         7.01227
     2022.58179         4.86109         7.03953
     2022.58453         0.76661         7.33674
     2022.58726        -3.66987         7.17450
     2022.59000        -2.78635         7.17321
     2022.59274       -13.36083         6.94998
     2022.59548        -6.08831         7.10572
     2022.59822       -12.44779         6.97464
     2022.60095       -12.63727         7.03823
     2022.60369        12.52125         7.39125
     2022.60643         8.00377         7.19527
     2022.60917         3.43529         7.07587
     2022.61190         9.13281         7.02525
     2022.61464         4.40133         6.94738
     2022.61738         5.64485         6.94998
     2022.62012        -2.00263         6.90196
     2022.62286        -2.48711         6.93181
     2022.62559        -1.98859         6.93440
     2022.62833         0.71393         6.87600
     2022.63107         7.00745         7.05510
     2022.63381        10.47397         6.96425
     2022.63655         0.15549         6.94219
     2022.63928         5.14901         6.96944
     2022.64202         0.19653         7.52492
     2022.64476         9.29205         7.44446
     2022.64750         3.54357         7.09274
     2022.65023         7.11809         7.12000
     2022.65297        12.24361         7.13038
     2022.65571         6.59813         7.06159
     2022.65845         6.58565         6.87989
     2022.66119         4.56017         6.91234
     2022.66392        13.77269         6.96296
     2022.66666         4.40721         6.91234
     2022.66940         5.53173         6.86172
     2022.67214         4.32225         6.88249
     2022.67488         4.78177         6.85523
     2022.67761        15.41529         6.97204
     2022.68035         8.17981         6.94479
     2022.68309        11.46433         7.00319
     2022.68583         5.05185         7.16282
     2022.68856         9.48237         6.99930
     2022.69130         7.87989         6.97593
     2022.69404         4.64141         7.00578
     2022.69678         7.76793         7.09404
     2022.69952         6.93745         7.06808
     2022.70225        19.00197         7.17061
     2022.70499        13.23249         7.30559
     2022.70773        12.12501         6.97983
     2022.71047        13.78453         6.81630
     2022.71321        31.03105         6.96296
     2022.71594        11.90057         6.97334
     2022.71868         6.23809         6.92921
     2022.72142        23.77561         6.82928
     2022.72416        19.93313         6.99670
     2022.72689         9.86365         6.94868
     2022.72963        12.12217         6.82149
     2022.73237         8.73069         6.84615
     2022.73511         7.14321         6.84745
     2022.73785         7.73973         6.86172
     2022.74058        13.89825         7.16542
     2022.74332        14.49777         7.12519
     2022.74606        19.17329         6.94738
     2022.74880         9.39181         6.87081
