# ================= DQRFIT RESULTS ================
# INPUT FILE: series/SWNB.rad
# OUTPUT: LDETRENDED
# FILTER FUNCTION: f(t)
# f(t)=+line(t)+annual(t)
# line(t)=+P 1+P 2*t
# annual(t)=+P 3*sin(2*pi*t+P 4)
# heav(t)=(t<0?0:1)
# TOTAL OBSERVATIONS MTOT= 4004
# INITIAL TIME INTERVAL= 2022.7488 - 2011.6468 = 11.1020
# TOTAL OBSERVATIONS AFTER PREFILTER M= 3997
# TIME-SPAN= 2022.7488 - 2011.6468 = 11.1020
# OBSERVATIONS: USED M=  3997 REJECTED MTOT-M=     7 %USED=   99.8252
# N=  4 PARAMETERS
# MAXSIG= 175.00000
# MAXRES=  35.31072
# SCALE FACTOR FOR LENGTHS: SCL=  10.00000
# SCALE FACTOR FOR SIGMAS: SCLSIG=   1.00000
# CHI^2=   5931.202 DOF=  3993 CHI^2/DOF=   1.48540
# RMS=      6.600 SDEV=      6.601 MEAN=    0.05793
#  P #       PARAMETER +-    SIGMA %error PARAMETER NAME
# P 1 =      1287.92572 +-   65.700   5.10 YZERO                              
# P 2 =        -0.63847 +-    0.033   5.10 SLOPE                              
# P 3 =         5.36645 +-    0.146   2.73 ANNUAL AMPLITUDE                   
# P 4 =         2.90738 +-    0.037   1.29 ANNUAL PHASE                       
#       T            LDETRENDED       SIG_OBS
     2011.64681         6.53737         6.57161
     2011.64955        -0.48088         6.73248
     2011.65229        -4.36614         6.68495
     2011.65503         1.24361         6.59233
     2011.65776        -0.47464         6.51798
     2011.66050         5.08411         6.69105
     2011.66324        10.02786         6.62889
     2011.66598        -0.78840         6.65692
     2011.66872         0.03535         6.73980
     2011.67145        -1.61690         6.56308
     2011.67419         1.76885         6.56429
     2011.67693         8.12660         6.69470
     2011.67967         2.21934         6.62401
     2011.68240        -1.65091         6.62523
     2011.68514        -2.97616         6.62523
     2011.68788         5.18659         6.81658
     2011.69062         5.81434         6.62036
     2011.69336         0.58608         6.54845
     2011.69609         0.42483         6.63376
     2011.69883         4.73758         6.66423
     2011.70153         0.35130         6.67642
     2011.70431         4.45308         6.63742
     2011.70705         2.79182         6.69105
     2011.70978        -8.59043         6.60573
     2011.71252        -2.75368         6.57283
     2011.71526        -8.08393         6.78367
     2011.71800         2.09882         6.72030
     2011.72073         4.40656         6.55576
     2011.72347         3.19031         6.54358
     2011.72621         3.47806         6.51554
     2011.72895         8.52481         6.56186
     2011.73169         5.78456         6.68617
     2011.73442         2.02430         6.68861
     2011.73716         4.58205         6.65692
     2011.73990         6.92680         6.50457
     2011.74264         5.75755         6.48264
     2011.74538         3.36430         6.66180
     2011.74811        11.94804         6.64108
     2011.75085         4.88479         6.61792
     2011.75359         9.59454         6.54479
     2011.75633        17.46529         6.55454
     2011.75906        23.60304         6.62645
     2011.76180         7.11379         6.54114
     2011.76454        -5.82147         6.65205
     2011.76728         4.92428         6.57770
     2011.77002         0.17203         6.65448
     2011.77275        11.89178         6.92383
     2011.77549        10.65953         6.65814
     2011.77823        -3.23073         6.65326
     2011.78097         1.11902         6.67398
     2011.78371         6.17277         6.63986
     2011.78644         4.96352         6.60573
     2011.78918        17.83827         6.79342
     2011.79192        -0.04999         6.74345
     2011.79466        -3.72824         6.64473
     2011.79739         6.08951         6.68739
     2011.80013         7.29126         6.54723
     2011.80287        -1.78499         6.59476
     2011.80535        -7.28941         7.35406
     2011.80835        -1.88950         6.67764
     2011.81108         3.24825         6.80683
     2011.81347        -0.57322         7.73309
     2011.81656        -0.64425         6.55942
     2011.81930        -0.24251         6.57161
     2011.82203        -0.25776         6.58501
     2011.82477         7.94499         6.72030
     2011.82751         2.51974         6.63255
     2011.83025        10.54749         6.58379
     2011.83299        -2.19077         6.56917
     2011.83572        -3.67702         6.67886
     2011.83846        -1.14227         6.65692
     2011.84120         5.74748         6.59476
     2011.84394         5.59923         6.55333
     2011.84668         5.08497         6.70567
     2011.84941        -0.36828         6.57526
     2011.85215        -5.51753         6.58136
     2011.85489        -4.03578         6.71055
     2011.85763        -0.70403         6.72152
     2011.85909        25.20890        26.73250
     2011.86584        10.48921         6.64717
     2011.86858        -0.06104         6.66180
     2011.87132         8.17771         6.58379
     2011.87405         1.62745         6.61548
     2011.87679         9.29320         6.61914
     2011.87953         4.45895         6.68008
     2011.88227         5.10770         6.64961
     2011.88501         8.46045         6.61548
     2011.88774         6.84019         6.60086
     2011.89048        15.83494         6.65326
     2011.89322         7.74869         6.66301
     2011.89596         7.33244         6.59720
     2011.89869        -0.16681         6.68739
     2011.90143        -1.26507         6.59598
     2011.90417         2.12468         6.67886
     2011.90691         3.62143         6.56429
     2011.90965         2.48618         6.61548
     2011.91238         2.35193         6.78855
     2011.91512         4.70067         6.66301
     2011.91786         6.24542         6.78733
     2011.92060        -3.35283         6.70323
     2011.92334        -4.97508         6.70080
     2011.92607        -4.56233         6.73614
     2011.92881        -0.28859         6.79708
     2011.93155         3.94816         6.72883
     2011.93429         0.39891         6.72517
     2011.93702         2.97066         6.63986
     2011.93976         5.16241         6.57404
     2011.94250         5.76916         6.60695
     2011.94524         4.98190         6.58623
     2011.94798         6.73065         6.55333
     2011.95071         4.11540         6.55211
     2011.95345         5.48815         6.65083
     2011.95619         3.40190         6.68252
     2011.95893         1.18564         6.66180
     2011.96167         8.65139         6.69714
     2011.96440         5.92114         6.56673
     2011.96714         1.29089         6.52529
     2011.96988         6.26864         6.50823
     2011.97262         0.35738         6.60330
     2011.97535         1.32513         6.60208
     2011.97809        -1.00512         6.60330
     2011.98083         3.59063         6.50457
     2011.98631         7.20212         6.53139
     2011.98904        19.64887         6.68252
     2011.99178        22.79762         6.58136
     2011.99452        16.13837         6.52773
     2011.99726         7.58612         6.55942
     2012.00273         5.45661         6.54845
     2012.00547         1.82336         6.57039
     2012.00821         6.21411         6.51920
     2012.01095         6.59186         6.57648
     2012.01368         7.70860         6.56551
     2012.01642         9.19835         6.57039
     2012.01916         5.84810         6.55576
     2012.02190         7.44485         6.53017
     2012.02464         9.24460         6.55942
     2012.02737         4.10034         6.54601
     2012.03011         4.19409         6.58745
     2012.03285         2.11484         6.58136
     2012.03559         9.62759         6.65692
     2012.03833         5.58734         6.53748
     2012.04106         7.66808         6.57039
     2012.04380         3.10783         6.54967
     2012.04654        13.55858         6.62523
     2012.05201        23.56608         6.65083
     2012.05749         8.76857         6.54479
     2012.06023         9.85732         6.71420
     2012.06297         7.25807         6.64595
     2012.06570         6.49382         6.64473
     2012.06844        10.65756         6.70567
     2012.07118        -2.67569         6.57526
     2012.07392        -1.38394         6.58379
     2012.07666         5.63581         6.64230
     2012.07939         6.70056         6.59720
     2012.08213         5.12230         6.57404
     2012.08486         5.74405         6.63498
     2012.08761        -1.28520         6.63255
     2012.09034        -1.34145         6.63011
     2012.09308         0.94430         6.58014
     2012.09582        -0.48696         6.57526
     2012.09856         2.14779         6.62645
     2012.10130        -1.95946         6.76905
     2012.10403         9.63029         6.67398
     2012.10677         1.80504         6.73127
     2012.10951         2.27879         6.72639
     2012.11225         3.70853         6.68983
     2012.11498         0.79828         6.67642
     2012.11772         1.69103         6.69470
     2012.12046         6.81178         6.69836
     2012.12320         1.76553         6.68983
     2012.12594         0.13927         6.55942
     2012.12867        -1.48698         6.61914
     2012.13141        -3.04323         6.64839
     2012.13415         2.71652         6.59964
     2012.13689         4.62427         6.63133
     2012.13963         3.39401         6.68861
     2012.14236         0.87676         6.77758
     2012.14510         5.18951         6.73614
     2012.14784        -3.72574         6.63498
     2012.15058         8.69001         6.59964
     2012.15331         4.81675         6.60817
     2012.15605         2.02350         6.68252
     2012.15879         1.65725         6.75808
     2012.16153         1.67600         6.62523
     2012.16427         0.28775         6.71055
     2012.16700        -1.17251         6.71420
     2012.16974        -5.22376         6.59354
     2012.17248        -5.36201         6.57892
     2012.17522        -1.49626         6.65326
     2012.17796         4.08849         6.69592
     2012.18069        -0.73077         6.62401
     2012.18343        -5.26002         6.65448
     2012.18617        -5.67227         6.61792
     2012.18891        -0.46952         6.68495
     2012.19164         4.01723         6.66545
     2012.19438         7.77097         6.67398
     2012.19712         6.29372         6.65570
     2012.19986         1.98347         6.71420
     2012.20260         7.38222         6.65326
     2012.20533         9.40297         6.66667
     2012.20807        14.68071         6.56186
     2012.21081         1.20346         6.44851
     2012.21355        -1.79579         6.43389
     2012.21629         1.11196         6.44607
     2012.21902         1.55271         6.44486
     2012.22176        -5.50155         6.63133
     2012.22450       -10.14980         6.57526
     2012.22724        -2.75505         6.63255
     2012.22997        -3.03530         6.66058
     2012.23271         0.95345         6.66789
     2012.23545         0.50719         6.51067
     2012.23819         4.20694         6.65814
     2012.24093         1.00369         6.43998
     2012.24366         6.99544         6.41682
     2012.24640        -1.52881         6.69470
     2012.24914         2.01493         6.68252
     2012.25188        -3.21732         6.56795
     2012.25462        -6.16057         6.61792
     2012.25735        -2.12582         6.58867
     2012.26009        -6.32807         6.63376
     2012.26252       -12.57652         7.63072
     2012.26557        -5.71158         6.60208
     2012.26830        -3.42283         6.55089
     2012.27104        -8.21308         6.81170
     2012.27378        -4.03333         6.59964
     2012.27652         3.70341         6.57404
     2012.27926         5.49916         6.81658
     2012.28199        -0.35509         6.57526
     2012.28473        -0.64134         6.64108
     2012.28747        -4.27459         6.63376
     2012.29021        -1.59284         6.57892
     2012.29295        -4.90510         6.59598
     2012.30116       -11.60585         6.66423
     2012.30390       -11.83310         6.39001
     2012.30663       -10.28736         6.41317
     2012.30937        -3.18361         6.39976
     2012.31211         7.32214         6.85071
     2012.31485        -2.39211         6.69714
     2012.31759         4.47564         6.55211
     2012.32032        -6.15662         6.62158
     2012.32306        -8.18887         6.45826
     2012.32580        -9.23912         6.45704
     2012.32854        -1.49537         6.52895
     2012.33128        -3.44562         6.62036
     2012.33401        -0.61288         6.63133
     2012.33675         6.87687         6.49361
     2012.33949        -5.38838         6.48386
     2012.34223       -10.16663         6.43145
     2012.34496        -7.99988         6.47411
     2012.34770        -8.02414         6.59476
     2012.35044        -6.76039         6.47654
     2012.35318        -9.82064         6.39489
     2012.35592        -3.72489         6.46070
     2012.35865       -12.87714         6.46801
     2012.36139        -6.75240         6.47289
     2012.36413        -6.04065         6.46923
     2012.36687        -8.10490         6.37051
     2012.36961        -7.76315         6.39489
     2012.37234        -5.87840         6.41926
     2012.37508        -0.52366         6.48142
     2012.37782        -7.32191         6.58379
     2012.38056        -9.14416         6.46314
     2012.38329        -8.96441         6.55576
     2012.38603        -5.93466         6.60939
     2012.38877        -7.63792         6.68617
     2012.39151        -6.12817         6.59964
     2012.39425        -0.50642         6.54114
     2012.39698        -8.14667         6.60939
     2012.39972        -6.73492         6.49970
     2012.40246         0.52882         6.37539
     2012.40520        -9.19143         6.38879
     2012.40794        -7.73568         6.43754
     2012.41067        -6.38293         6.51311
     2012.41341        -9.92818         6.51554
     2012.41615        -3.81044         6.61670
     2012.41889         0.77131         6.64351
     2012.42162        -5.45394         6.52773
     2012.42436         4.51581         6.52773
     2012.42710        -4.87744         6.47776
     2012.42984        -6.24970         6.46070
     2012.43258        -2.49795         6.50823
     2012.43531        -3.47720         6.50214
     2012.43805        -6.17145         6.51920
     2012.44079       -12.85470         6.53017
     2012.44353        -8.33696         6.51676
     2012.44626        -4.93621         6.55942
     2012.44900        -7.69746         6.55698
     2012.45174        -4.92271         6.52651
     2012.45448        -4.21796         6.55576
     2012.45722        -4.57822         6.57770
     2012.45995        -2.24147         6.65814
     2012.46269        -2.73272         6.54358
     2012.46543        -7.86097         6.50092
     2012.46817        -4.33922         6.56186
     2012.47091        -8.36247         6.56673
     2012.47364        -1.68773         6.59720
     2012.47638         5.98702         6.59964
     2012.47912        -2.30423         6.53504
     2012.48186        -2.36948         6.51432
     2012.48459         4.97027         6.52408
     2012.48635       -23.32761        13.59294
     2012.49007        -1.06424         6.54845
     2012.49281         1.26251         6.52408
     2012.49555        -3.46274         6.57526
     2012.49828        -1.57299         6.52042
     2012.50102        -1.28725         6.56186
     2012.50376        -3.13550         6.54601
     2012.50650        -4.64175         6.52042
     2012.50924        -5.81500         6.61183
     2012.51197        -5.39625         6.62889
     2012.51471        -3.23851         6.63864
     2012.51745        -1.34176         6.67764
     2012.52019        -4.11901         6.77880
     2012.52292        -4.95526         6.54479
     2012.52566        -0.30851         6.48751
     2012.52840        -4.39777         6.52042
     2012.53114        -5.84202         6.58501
     2012.53388        -8.84527         6.63986
     2012.53661        -5.84052         6.53504
     2012.53935        -0.86077         6.49726
     2012.54209         2.28397         6.61914
     2012.54483         1.87772         6.62645
     2012.54757        -5.42153         6.56429
     2012.55030        -0.13678         6.53626
     2012.55304        -0.61803         6.47776
     2012.55578        -7.56929         6.58623
     2012.55852        -6.91454         6.47898
     2012.56125        -3.97379         6.48386
     2012.56399         0.67696         6.54967
     2012.56673        -1.50529         6.55820
     2012.56947        -0.27555         6.56064
     2012.57221        -0.27580         6.52529
     2012.57494        -1.57805         6.53870
     2012.57768        -6.89730         6.51798
     2012.58042         2.88945         6.52773
     2012.58316        -8.49481         6.46070
     2012.58590        -0.28906         6.56917
     2012.58863        -2.04831         6.55333
     2012.59137         0.33044         6.51311
     2012.59411         3.11719         6.54236
     2012.59685         7.52893         6.76417
     2012.59958         3.06568         6.55333
     2012.60232        -2.14657         6.95186
     2012.60506        -0.07682         6.53870
     2012.60780         0.44693         6.51554
     2012.61054         6.32267         6.49970
     2012.61327         5.76442         6.50336
     2012.61601         6.75417         6.54358
     2012.61875         4.84992         6.50701
     2012.62149         7.25067         6.50457
     2012.62423         5.44541         6.53504
     2012.62696         6.59516         6.58867
     2012.62970        -8.34109         6.68983
     2012.63244         4.83766         6.68739
     2012.63518         6.22741         6.58745
     2012.63791         4.00716         6.53383
     2012.64065         5.30690         6.52895
     2012.64339         3.99265         6.53504
     2012.64613         3.24540         6.55089
     2012.64887         6.18515         6.54845
     2012.65160        11.33490         6.57648
     2012.65434         3.24164         6.72883
     2012.65708         5.47839         6.72395
     2012.65982         5.64514         6.73005
     2012.66256        11.31789         6.52164
     2012.66529        13.51464         6.65326
     2012.66803         4.46638         6.60208
     2012.67077         6.73513         6.54236
     2012.67351         5.33188         6.56429
     2012.67624         6.32863         6.55820
     2012.67898         8.69638         6.46923
     2012.68172         5.79712         6.53504
     2012.68446        10.37887         6.56308
     2012.68720         8.09662         6.47654
     2012.68993         9.77937         6.51920
     2012.69267         5.75712         6.62401
     2012.69541         3.47786         6.47289
     2012.69815         3.84161         6.62401
     2012.70089         3.74736         6.47532
     2012.70362        -0.17389         6.54358
     2012.70636         3.74286         6.61183
     2012.70910        -0.56140         6.48507
     2012.71184         4.21935         6.50336
     2012.71457         6.60010         6.50945
     2012.71731         9.04285         6.52408
     2012.72005         9.16360         6.48142
     2012.72279         9.19634         6.45339
     2012.72553        12.24609         6.50336
     2012.72826        12.12084         6.70323
     2012.73100         7.00359         6.73005
     2012.73374         3.40634         6.63620
     2012.73648         7.97508         6.50457
     2012.73921         8.30383         6.62401
     2012.74195         9.50158         6.62767
     2012.74469         5.74233         6.53626
     2012.74743         9.80808         6.51798
     2012.75017         5.67882         6.56551
     2012.75290         5.87757         6.56673
     2012.75564         5.19132         6.50823
     2012.75838         5.43807         6.56064
     2012.76112         7.85382         6.50823
     2012.76386         7.97656         6.49361
     2012.76659         8.99331         6.50214
     2012.76933         8.64206         6.52895
     2012.77207         7.83181         6.53748
     2012.77481         7.71556         6.45826
     2012.77754         8.39930         6.35832
     2012.78028         9.69505         6.51067
     2012.78302        11.42780         6.48507
     2012.78576         2.64455         6.48142
     2012.78850        16.92330         6.45948
     2012.79123        27.51404         6.64351
     2012.79397         9.70879         6.48386
     2012.79671         7.35754         6.52895
     2012.79945        14.95029         6.66667
     2012.80219        17.50804         6.54358
     2012.80492        10.80378         6.48995
     2012.80766         8.80053         6.52773
     2012.81040         6.42628         6.55454
     2012.81314         6.43803         6.59720
     2012.81587         1.31978         6.56429
     2012.81861         4.95153         6.77270
     2012.82135         5.36927         6.55089
     2012.82409         7.97302         6.66180
     2012.82683         8.70777         6.55576
     2012.82956         5.15252         6.63376
     2012.83230         8.29327         6.52286
     2012.83504        11.84801         6.60939
     2012.83778         4.98476         6.58623
     2012.84052         3.46951         6.55820
     2012.84325        -5.64474         6.62889
     2012.84599         1.33201         6.70323
     2012.84873         5.25475         6.68983
     2012.85147        12.21350         6.64961
     2012.85420         4.26325         6.68008
     2012.85694        -3.87900         6.73005
     2012.85968        -5.15025         6.68130
     2012.86242        -1.30651         6.57161
     2012.86516         7.20024         6.56795
     2012.86789         1.80099         6.71420
     2012.87063         3.57174         6.61792
     2012.87337         1.52149         6.67398
     2012.87611         4.56123         6.61792
     2012.87885         7.88398         6.58258
     2012.88158         2.35273         6.53992
     2012.88432        10.72448         6.66667
     2012.88706         8.57723         6.74833
     2012.88980        15.85297         6.77027
     2012.89253         1.59872         6.56551
     2012.89527        -0.40453         6.61305
     2012.89801         9.81222         6.60208
     2012.90075        13.56997         6.69470
     2012.90349         4.76671         6.68495
     2012.90622         5.57346         6.60208
     2012.90896         6.05421         6.74711
     2012.91170         3.60996         6.62158
     2012.91444        13.04271         6.59598
     2012.91718        11.80945         6.53139
     2012.91991        16.69820         6.51189
     2012.92265         1.60295         6.54358
     2012.92539        17.36470         6.56064
     2012.92813         9.92845         6.55333
     2012.93086         3.46519         6.62036
     2012.93360         3.91294         6.67033
     2012.93634         4.95569         6.49117
     2012.93908        -1.75056         6.56551
     2012.94182         0.11719         6.53383
     2012.94455        10.19093         6.54479
     2012.94729         5.16968         6.67398
     2012.95003         4.45543         6.65326
     2012.95277         9.15018         6.52773
     2012.95551        10.57393         6.51067
     2012.95824         8.19567         6.50336
     2012.96098         8.45542         6.70689
     2012.96372         6.55517         6.65570
     2012.96646         6.89292         6.57039
     2012.96919        -1.87233         6.62158
     2012.97193         1.99041         6.73127
     2012.97467         5.49116         6.58867
     2012.97741         0.80691         6.55333
     2012.98015         0.48266         6.58623
     2012.98288         0.79841         6.57283
     2012.98562         3.55716         6.57648
     2012.98836         3.23090         6.55942
     2012.99110         2.29265         6.55211
     2012.99384         1.94940         6.61183
     2012.99657        -2.75185         6.58014
     2012.99931         0.29690         6.63864
     2013.00205         3.63964         6.60208
     2013.00479        -0.34861         6.65083
     2013.00752         0.06314         6.60573
     2013.01026        -4.10311         6.61426
     2013.01300         0.41964         6.58014
     2013.01574         1.98438         6.61426
     2013.01848         4.99113         6.63986
     2013.02121         4.19888         6.60451
     2013.02395         2.97163         6.61914
     2013.02669         6.86638         6.75686
     2013.02943         5.34412         6.61914
     2013.03216        -1.63213         6.61914
     2013.03490        -6.59638         6.66911
     2013.03764        -7.34863         6.64230
     2013.04038        -8.38288         6.57283
     2013.04312       -10.36614         6.74223
     2013.04585        -9.77839         6.77514
     2013.05133        -4.98889         6.61305
     2013.05407        -4.59414         6.62767
     2013.05681        -1.20140         6.62158
     2013.05954        -2.90365         6.64351
     2013.06228        -3.78990         6.79342
     2013.06502         2.04485         6.74589
     2013.06776         5.81660         6.67398
     2013.07049        -0.83266         6.68739
     2013.07323        -0.80391         6.56064
     2013.07597        -2.97616         6.64108
     2013.07871        -4.76741         6.62889
     2013.08145        -5.02566         6.58989
     2013.08418        -6.15592         6.60086
     2013.08692        -5.66017         6.62889
     2013.08966        -6.82542         6.59233
     2013.09240        -2.62167         6.65570
     2013.09514        -4.41292         6.62036
     2013.09787         1.74182         6.90677
     2013.10061        -1.72843         7.07862
     2013.10335        -3.28568         6.65205
     2013.10609         0.47907         6.56917
     2013.10882        -1.08718         6.63133
     2013.11156        -8.94544         6.76539
     2013.11430        -4.27769         6.64230
     2013.11704        -7.40994         6.71664
     2013.11978        -5.49919         6.90311
     2013.12251        -9.91944         6.67764
     2013.12525       -10.24970         6.68373
     2013.12799        -4.45895         6.66423
     2013.13073        -6.13220         6.66789
     2013.13347        -3.14845         6.68983
     2013.13620         2.49830         6.65936
     2013.13894        -0.06796         6.67155
     2013.14168        -1.87521         6.73736
     2013.14442         2.88954         6.92261
     2013.14715         8.12429         6.92505
     2013.14989        -8.22296         6.60086
     2013.15263        -4.13122         6.68008
     2013.15537       -12.92447         6.66789
     2013.15811        -8.17472         6.60451
     2013.16084        -9.99497         6.60817
     2013.16358       -12.54622         6.56429
     2013.16632        -9.20747         6.52408
     2013.16906        -2.79173         6.58136
     2013.17180        -1.46098         6.60573
     2013.17453        -0.35323         6.58989
     2013.17727         1.98652         6.69105
     2013.18001        -5.27473         6.67155
     2013.18275        -2.68499         6.55333
     2013.18548        -7.45024         6.53139
     2013.18822       -10.86249         6.54358
     2013.19096        -6.91674         6.60695
     2013.19370        -7.37099         6.58623
     2013.19644        -7.62825         6.60573
     2013.19917        -4.27850         6.57283
     2013.20191        -7.36075         6.64717
     2013.20465        -2.87700         6.61548
     2013.20739         1.84275         6.63133
     2013.21013         0.36849         6.52164
     2013.21286        -3.45976         6.51676
     2013.21560         2.34299         6.54723
     2013.21834        -0.62826         6.57404
     2013.22108        -3.20151         6.56917
     2013.22381        -5.47777         6.55211
     2013.22655        -6.52602         6.53383
     2013.22929        -4.90227         6.56795
     2013.23203        -3.62552         6.57039
     2013.23477         0.98823         6.59720
     2013.23750        -6.19403         6.75442
     2013.24024        -1.96728         6.73858
     2013.24298        -1.30153         6.75808
     2013.24572         4.80922         6.76905
     2013.24846         1.70997         6.73858
     2013.25119        -1.93929         6.59842
     2013.25393        -3.82354         6.56308
     2013.25667        -1.71379         6.82024
     2013.25941         8.47596         6.62158
     2013.26214         5.43971         6.58989
     2013.26488         5.61545         6.63133
     2013.26762         1.23220         6.57892
     2013.27036        -3.55405         6.58136
     2013.27310        -3.77330         6.89214
     2013.27583         1.09745         6.61305
     2013.27857        -2.11681         6.77514
     2013.28131         2.11194         6.57039
     2013.28405        -0.82631         6.54601
     2013.28679         0.56544         6.68495
     2013.28952        -0.30481         6.53383
     2013.29226        -5.93307         6.68861
     2013.29500        -5.82732         6.58136
     2013.29774        -9.92257         6.71055
     2013.30047        -3.90382         6.59354
     2013.30321        -9.48107         6.58867
     2013.30595        -5.51633         6.55942
     2013.30869        -6.01958         6.72273
     2013.31143        -6.02483         6.52651
     2013.31416        -1.56108         6.54114
     2013.31690        -0.70933         6.60817
     2013.31964        -6.05559         6.59964
     2013.32238        -5.85384         6.55942
     2013.32512        -2.17309         6.57892
     2013.32785        -2.17234         6.53504
     2013.33059        -4.14059         6.53383
     2013.33333        -8.59884         6.58379
     2013.33607        -6.58410         6.57283
     2013.33880        -3.63135         6.62645
     2013.34154         2.71940         6.51920
     2013.34428         0.02315         6.72152
     2013.34702         0.24490         6.74467
     2013.34976        -1.32536         6.81414
     2013.35249        -3.85061         6.75077
     2013.35523        -6.23786         6.84339
     2013.35797         0.65689         6.70811
     2013.36071        -6.36836         6.76174
     2013.36344        -3.03062         6.75077
     2013.36618        -4.11087         6.69714
     2013.36892        -0.06112         6.68130
     2013.37166        -0.76137         6.63255
     2013.37440         4.40138         6.66667
     2013.37713        -4.50988         6.72152
     2013.37987        -6.67413         6.69958
     2013.38261        -9.27438         6.68252
     2013.38535        -4.54463         6.79952
     2013.38809        -2.63688         6.62767
     2013.39082        -2.87214         6.63376
     2013.39356        -5.56539         6.70933
     2013.39630        -2.01964         6.73492
     2013.39904         2.04211         6.67155
     2013.40177         5.26186         6.68008
     2013.40451         3.84460         6.71298
     2013.40725         2.94735         6.84217
     2013.40999         2.69910         6.68008
     2013.41273        -3.05115         6.66301
     2013.41546        -3.42740         6.90067
     2013.41820        -1.01866         6.73736
     2013.42094         0.28509         6.72517
     2013.42368        -7.22516         6.71664
     2013.42642        -2.68641         6.73127
     2013.42915        -2.62366         6.71786
     2013.43189        -9.40492         6.71664
     2013.43463        -3.04517         6.63376
     2013.43737         0.12058         6.69227
     2013.44010        -0.88767         6.68861
     2013.44284        -9.47292         6.65936
     2013.44558        -3.14618         6.79586
     2013.44832        -4.66943         6.58136
     2013.45106        -3.75668         6.54236
     2013.45379        -2.69793         6.64108
     2013.45653        -8.29418         6.70323
     2013.45927       -10.62444         6.67886
     2013.46201        -3.71269         6.68983
     2013.46475         3.55106         6.61061
     2013.46748        -5.60419         6.58989
     2013.47022        -5.15144         6.61426
     2013.47296        -6.13670         6.58136
     2013.47570         1.93105         6.60695
     2013.47843         6.56080         6.66423
     2013.48117         1.61055         6.63498
     2013.48391        -0.72270         6.62645
     2013.48665        -6.33796         6.62767
     2013.48939        -3.44721         6.72273
     2013.49212        -3.47946         6.67276
     2013.49486        -5.51071         6.73127
     2013.49760        -0.19896         6.70445
     2013.50034        -3.78722         6.64717
     2013.50308        -5.57747         6.65814
     2013.50581        -3.01672         6.60208
     2013.50855        -1.56897         6.60330
     2013.51129         0.57778         6.63620
     2013.51403        -0.95047         6.60817
     2013.51676         4.26027         6.62280
     2013.51950        -1.10998         6.60451
     2013.52224        -2.71923         6.68617
     2013.52498        -2.23648         6.77027
     2013.52772         0.45327         6.61548
     2013.53045        -4.30999         6.61548
     2013.53319        -1.05024         6.63255
     2013.53593         4.34151         6.67764
     2013.53867         2.98026         6.64351
     2013.54141        -0.47599         6.62036
     2013.54414        -1.29325         6.68983
     2013.54688        -3.27950         6.63742
     2013.54962         0.46525         6.63133
     2013.55236         5.33100         6.62401
     2013.55509         1.11975         6.62523
     2013.55783         2.94049         6.64351
     2013.56057         0.76224         6.77149
     2013.56331         2.50099         6.82267
     2013.56605        -1.34626         6.67642
     2013.56878         2.18649         6.63742
     2013.57152         2.84023         6.62158
     2013.57426         6.61498         6.65083
     2013.57700         4.47473         6.70811
     2013.57974         6.20648         6.69714
     2013.58247        15.28023         6.91774
     2013.58521         5.37697         6.70933
     2013.58795         4.92772         6.63864
     2013.59069         9.19947         6.66058
     2013.59342         0.20522         6.73127
     2013.59616         7.94497         6.64839
     2013.59890         5.16671         6.73005
     2013.60164         3.78846         6.70933
     2013.60438         8.33621         6.69836
     2013.60711         4.43296         6.72883
     2013.60985         6.66271         6.68983
     2013.61259         2.84545         6.79830
     2013.61533         5.52520         6.92018
     2013.61807         6.17195         6.86046
     2013.62080        13.41870         6.77514
     2013.62354         7.97245         6.69836
     2013.62628        10.10419         6.70689
     2013.62902         1.61394         6.74833
     2013.63175         2.78169         6.73127
     2013.63449         8.21244         6.88727
     2013.63723         6.80819         6.71055
     2013.63997         6.23693         6.78367
     2013.64271         0.85968         6.71055
     2013.64544        16.58243         6.63864
     2013.64818        12.70918         6.78002
     2013.65092        17.27793         6.70445
     2013.65366         7.58867         6.63620
     2013.65639        12.22542         6.59720
     2013.65913         4.39117         6.77758
     2013.66187         4.23592         6.63255
     2013.66461         5.35767         6.58745
     2013.66735         9.67641         6.63011
     2013.67008        10.53416         6.66301
     2013.67282         9.80591         6.81658
     2013.67556         7.86566         6.70933
     2013.67830        10.44941         6.63498
     2013.68104         7.90416         6.51432
     2013.68377         7.91590         6.50214
     2013.68651         5.06765         6.54358
     2013.68925         7.05140         6.67155
     2013.69199        12.40115         6.53139
     2013.69472        13.29190         6.53748
     2013.69746         4.15464         6.60939
     2013.70020        12.48339         6.54236
     2013.70294        12.67514         6.68373
     2013.70568         3.81589         6.77758
     2013.70841         7.72164         6.54723
     2013.71115        11.29338         6.63255
     2013.71389        11.78313         6.56064
     2013.71663         6.61488         6.52408
     2013.71937         6.96063         6.63133
     2013.72210        17.24738         6.65448
     2013.72484        18.89112         6.49970
     2013.72758         8.64887         6.54114
     2013.73032         9.57162         6.55698
     2013.73305        16.18337         6.38270
     2013.73579        13.09412         6.46192
     2013.73853         4.30586         6.42657
     2013.74127        13.30961         6.49726
     2013.74401        22.02936         6.58867
     2013.74674        14.62011         6.48507
     2013.74948         3.96486         6.40707
     2013.75222         0.42660         6.57404
     2013.75496        -2.82665         6.47898
     2013.75770        -2.66790         6.48629
     2013.76043         0.35085         6.46314
     2013.76317         4.16660         6.43754
     2013.76591         3.60534         6.55333
     2013.76865         6.45409         6.57039
     2013.77138         9.69184         6.58745
     2013.77412         8.58759         6.62767
     2013.77686         3.51934         6.59111
     2013.77960         4.90308         6.54236
     2013.78234         0.45783         6.57404
     2013.78507        -2.51642         6.58867
     2013.78781        -4.79967         6.60086
     2013.79055         0.02408         6.60330
     2013.79329         1.94282         6.56308
     2013.79603         3.49957         6.52286
     2013.79876         0.81732         6.57526
     2013.80150         2.33107         6.70080
     2013.80424         1.03282         6.68861
     2013.80698         3.05756         6.54845
     2013.80971         6.02831         6.54114
     2013.81245         6.35706         6.55698
     2013.81519         0.70681         6.58501
     2013.81793        -0.85944         6.56795
     2013.82067         2.65330         6.68617
     2013.82340        10.22705         6.60086
     2013.82614        10.47480         6.71664
     2013.82888         6.87755         6.59233
     2013.83162         3.94330         6.60208
     2013.83436        13.99104         6.72517
     2013.83709         6.50879         6.68983
     2013.83983         4.12454         6.64230
     2013.84257         3.11229         6.53261
     2013.84531         2.28604         6.64230
     2013.84804         6.84078         6.52286
     2013.85078         2.98453         6.56795
     2013.85352         7.35628         6.60451
     2013.85626         3.84203         6.54114
     2013.85900         2.53678         6.56429
     2013.86173        -1.36647         6.56917
     2013.86447         1.12327         6.58623
     2013.86721         2.36902         6.60086
     2013.86995         4.58677         6.59720
     2013.87269         7.12652         6.60939
     2013.87542        12.79027         6.61670
     2013.87816         8.88701         6.58867
     2013.88090        10.11976         6.63376
     2013.88364        24.08151         6.83974
     2013.88637        11.37126         6.58379
     2013.88911         0.81001         6.58501
     2013.89185        -3.90425         6.60086
     2013.89459        -3.16850         6.53383
     2013.89733         3.10525         6.54236
     2013.90006        -1.20800         6.63133
     2013.90280        -4.06325         6.66789
     2013.90554        -0.12851         6.57161
     2013.90828         4.54024         6.57648
     2013.91102         1.29799         6.54601
     2013.91375         0.77074         6.50945
     2013.91649         9.65449         6.57648
     2013.91923         8.49423         6.82999
     2013.92197         2.90098         6.72152
     2013.92470         1.37173         6.54114
     2013.92744         1.79748         6.62645
     2013.93018         1.57123         6.38148
     2013.93292        -4.75603         6.43876
     2013.93566         1.59572         6.46923
     2013.93839         4.04347         6.47289
     2013.94113        -2.02578         6.50945
     2013.94387        -0.78003         6.38026
     2013.94661         1.76771         6.46557
     2013.94935         2.54346         6.50945
     2013.95208        -0.45479         6.48142
     2013.95482         1.44396         6.48751
     2013.95756        -1.65829         6.41682
     2013.96030         2.87445         6.48142
     2013.96303         3.39320         6.58989
     2013.96577         5.26195         6.57039
     2013.96851         3.73270         6.59476
     2013.97125        13.49445         6.53748
     2013.97399         2.42019         6.53626
     2013.97672        -2.35106         6.56551
     2013.97946        -2.06631         6.60086
     2013.98220        -0.91756         6.61305
     2013.98494        -0.38481         6.51067
     2013.98767        -1.08007         6.53748
     2013.99041        -6.43232         6.54358
     2013.99315        -7.53857         6.59720
     2013.99589        -1.04182         6.56429
     2013.99863        -4.57607         6.59598
     2014.00410         0.31642         6.52286
     2014.00684         0.65417         6.60086
     2014.00958        -2.24108         6.58014
     2014.01232        -5.29633         6.64351
     2014.01505        -4.08459         6.70567
     2014.01779         0.75016         6.60573
     2014.02053         9.30491         6.48995
     2014.02327         4.33066         6.79220
     2014.02600         8.36141         6.83730
     2014.02874         4.97416         6.61061
     2014.03148        13.16290         6.58136
     2014.03422         2.45365         6.50579
     2014.03696         0.24940         6.53017
     2014.03969         0.55915         6.59111
     2014.04243        -0.13110         6.77270
     2014.04517         5.58564         6.75564
     2014.04791         0.59839         6.53261
     2014.05065         3.26614         6.49239
     2014.05338        -1.36711         6.59111
     2014.05612        -1.80136         6.56673
     2014.05886        -5.14562         6.56429
     2014.06160         6.23013         6.52773
     2014.06433         1.25288         6.72152
     2014.06707         1.37163         6.75320
     2014.06981         2.37738         6.64230
     2014.07255         2.11712         6.56308
     2014.07529         8.13987         6.53992
     2014.07802        16.42062         6.58136
     2014.08076         7.07137         6.58258
     2014.08350         2.94112         6.63620
     2014.08624        -1.25314         6.70445
     2014.08898        -0.98439         6.82633
     2014.09171        -1.79764         6.82145
     2014.09445         0.92011         6.55820
     2014.09719        -0.86414         6.68617
     2014.09993         2.63960         6.58989
     2014.10266        -1.31265         6.74102
     2014.10540        13.07810         6.55698
     2014.10814         6.01385         6.61305
     2014.11088        -0.41740         6.75199
     2014.11362         6.98834         6.59111
     2014.11635        20.22109         6.59476
     2014.11909         2.30484         6.59476
     2014.12183        12.52159         6.57770
     2014.12457         7.17934         6.51676
     2014.12731         8.69508         6.52651
     2014.13004         0.08783         6.55942
     2014.13278         7.47858         6.84461
     2014.13552         5.62533         6.68373
     2014.13826        11.97408         6.51920
     2014.14099        -1.02918         6.52529
     2014.14373         3.91357         6.53870
     2014.14647         1.80632         6.60695
     2014.14921         2.51807         6.54723
     2014.15195         2.15482         6.50092
     2014.15468         0.82156         6.57892
     2014.15742         9.39231         6.50214
     2014.16016        11.38706         6.80683
     2014.16290         4.08481         6.62889
     2014.16564         2.83956         6.52042
     2014.16837         5.97830         6.83121
     2014.17111         3.98505         6.85192
     2014.17385        -0.85120         6.90921
     2014.17659         4.14655         6.75930
     2014.17932         5.42130         6.94821
     2014.18206        -1.39296         6.76783
     2014.18480         9.60979         6.63986
     2014.18754         1.91654         6.64839
     2014.19028         0.04829         6.63255
     2014.19301        -0.65896         6.61548
     2014.19575         0.74078         6.58136
     2014.19849         1.09353         6.66911
     2014.20123        -0.81772         6.61426
     2014.20397        -4.92597         6.58136
     2014.20670         3.62378         6.73248
     2014.20944        -0.30847         6.65326
     2014.21218         2.49427         6.54845
     2014.21492         1.79002         6.74711
     2014.21765         0.19377         6.65692
     2014.22039        -1.01248         6.64230
     2014.22313         0.58227         6.65936
     2014.22587        -1.29499         6.68252
     2014.22861         2.86676         6.62158
     2014.23134         8.26951         6.65936
     2014.23408         5.06226         6.70323
     2014.23682         7.75401         6.73614
     2014.23956         0.11675         6.72517
     2014.24230        -0.88650         6.60208
     2014.24503        -4.23675         6.64108
     2014.24777        -0.89600         6.85802
     2014.25051       -10.78125         6.78367
     2014.25325        -2.50251         6.78489
     2014.25598        -0.35076         6.84217
     2014.25872        -0.67101         6.63742
     2014.26146         1.20774         6.82877
     2014.26420        -6.55551         6.67033
     2014.26694        -3.45377         6.73492
     2014.26967        -3.24902         6.76295
     2014.27241        -1.72827         6.83974
     2014.27515        -2.91652         6.87996
     2014.27789        -0.72677         6.72517
     2014.28062        -1.10203         6.71786
     2014.28336        -1.71928         6.71420
     2014.28610        -1.26753         6.83364
     2014.28884        -3.72678         6.99452
     2014.29158        -2.80703         6.71542
     2014.29431         0.93471         6.72273
     2014.29705         2.05746         6.78977
     2014.29979        -4.94779         6.69348
     2014.30253        -6.01504         6.73248
     2014.30527        -0.61329         6.74711
     2014.30800        -0.96455         6.72152
     2014.31074         2.84620         6.73370
     2014.31348        -5.91605         6.70080
     2014.31622        -1.25830         6.64717
     2014.31895         2.95645         6.73127
     2014.32169        -5.85981         6.83242
     2014.32443        -9.00906         6.83730
     2014.32717       -10.10631         6.89336
     2014.32991        -1.51156         6.70445
     2014.33264        -2.08181         6.75077
     2014.33538        -1.93507         6.75442
     2014.33812        -1.80732         6.84096
     2014.34086         1.03143         6.76539
     2014.34360        -2.23282         6.72152
     2014.34633        -4.77107         6.67155
     2014.34907        -2.40733         6.78489
     2014.35181         2.55142         6.83486
     2014.35455         0.26017         6.84096
     2014.35728        -5.05108         6.70567
     2014.36002        -8.58133         6.65936
     2014.36276        -8.06159         6.63011
     2014.36550        -7.99484         6.60086
     2014.36824        -6.27809         6.78733
     2014.37097        -4.31834         6.83608
     2014.37371        -8.43359         6.70567
     2014.37645         3.49916         6.73127
     2014.37919        -2.81610         6.63133
     2014.38193        -5.40835         6.70323
     2014.38466         1.48840         6.69836
     2014.38740        -8.11185         6.65448
     2014.39014         0.16190         6.71055
     2014.39288        -5.18236         6.59598
     2014.39561        -2.00361         6.71664
     2014.39835        -2.97786         6.67642
     2014.40109        -6.83211         6.72273
     2014.40383        -7.60036         6.68617
     2014.40657        -5.90862         6.61670
     2014.40930        -7.98587         6.62401
     2014.41204        -3.34112         6.71298
     2014.41478        -4.72937         6.69105
     2014.41752        -3.13162         6.71664
     2014.42026        -2.24988         6.66301
     2014.42299        -3.44413         6.70080
     2014.42573        -1.51338         6.68008
     2014.42847        -2.53063         6.73736
     2014.43121        -8.41688         6.73980
     2014.43394        -0.95414         6.69836
     2014.43668        -4.92039         6.73127
     2014.43942        -4.19564         6.67886
     2014.44216        -5.35089         6.67155
     2014.44490        -4.89814         6.87386
     2014.44763         5.47460         6.80561
     2014.45037        -4.45965         6.54236
     2014.45311        -3.84290         6.59233
     2014.45585        -4.91715         6.57161
     2014.45859        -6.67140         6.54236
     2014.46132        -3.03866         6.65326
     2014.46406        -3.84491         6.60695
     2014.46680        -2.79816         6.63133
     2014.46954        -2.39341         6.56429
     2014.47227        -6.14566         6.57770
     2014.47501        -2.00092         6.61670
     2014.47775         1.21883         6.61792
     2014.48049        -1.96942         6.56795
     2014.48323         4.98433         6.59964
     2014.48596         2.85808         6.63986
     2014.48870         0.77082         6.63376
     2014.49144        -0.15143         6.52286
     2014.49418        -2.93368         6.58258
     2014.49692        -4.56293         6.48751
     2014.49965         0.25282         6.70567
     2014.50239        -5.98144         6.66423
     2014.50513         0.04931         6.74589
     2014.50787        -0.11594         6.57161
     2014.51060        -7.44219         6.50945
     2014.51334         3.72356         6.54358
     2014.51608         1.70430         6.65692
     2014.51882         0.10505         6.87264
     2014.52156         2.26180         6.82145
     2014.52429        -1.52045         6.65692
     2014.52703         3.95330         6.60573
     2014.52977        -5.72996         6.76783
     2014.53251        -2.63421         6.72273
     2014.53525         1.78154         6.62036
     2014.53798         4.11129         6.54845
     2014.54072         5.75004         6.64839
     2014.54346         5.77278         6.56186
     2014.54620         5.56953         6.56551
     2014.54893         8.33328         6.51067
     2014.55167         1.34403         6.66667
     2014.55441        10.32178         6.72761
     2014.55715         8.11553         6.75199
     2014.55989        -0.58673         6.57283
     2014.56262        -0.55398         6.61792
     2014.56536         0.15577         6.63133
     2014.56810        -3.78948         6.63986
     2014.57084        -2.57273         6.61792
     2014.57357        -0.34099         6.64351
     2014.57631        -0.80824         6.72639
     2014.57905         2.15951         6.67033
     2014.58179        -1.12474         6.79099
     2014.58453         1.73701         6.78977
     2014.58726         0.62675         6.98721
     2014.59000         5.30850         6.63255
     2014.59274         5.08925         6.78367
     2014.59548         3.02000         6.62645
     2014.59822         7.71775         6.78977
     2014.60095         3.72849         6.80195
     2014.60369         4.23124         6.68252
     2014.60643        -4.70701         6.58623
     2014.60917         1.17974         6.69714
     2014.61190         6.73949         6.83486
     2014.61464         2.44123         6.67033
     2014.61738        11.59898         6.69470
     2014.62012         5.57473         6.64230
     2014.62286         3.54348         6.51432
     2014.62559         4.50123         6.55820
     2014.62833         7.99897         6.74833
     2014.63107         2.37472         6.77758
     2014.63381         6.14247         6.95674
     2014.63655        11.54122         6.67642
     2014.63928        -3.05303         6.58745
     2014.64202         1.07171         6.60086
     2014.64476         0.59546         6.68495
     2014.64750         0.79021         6.75564
     2014.65023         0.25696         6.60451
     2014.65297         7.76271         6.60086
     2014.65571         6.76745         6.61914
     2014.65845         8.02620         6.68495
     2014.66119         2.70295         6.85680
     2014.66392        12.12970         6.66423
     2014.66666         8.12145         6.62889
     2014.66940         4.90319         6.58014
     2014.67214         5.31694         6.67155
     2014.67488         3.74069         6.62280
     2014.67761         2.05544         6.65205
     2014.68035         5.70119         6.48751
     2014.68309         3.03793         6.60330
     2014.68583         5.31468         6.53261
     2014.68856         8.64443         6.68373
     2014.69130         0.65718         6.61792
     2014.69404         4.11993         6.42535
     2014.69678         2.24567         6.45339
     2014.69952         4.83842         6.46679
     2014.70225         2.74817         6.50092
     2014.70499         2.36992         6.52773
     2014.70773         2.84167         6.54236
     2014.71047         7.74241         6.52286
     2014.71321         9.91616         6.51311
     2014.71594         7.10691         6.63620
     2014.71868         4.77666         6.59964
     2014.72142         4.42941         6.60208
     2014.72416         9.39516         6.55942
     2014.72689         6.53490         6.56186
     2014.72963        15.25165         6.59111
     2014.73237        12.62240         6.61670
     2014.73511         1.94215         6.63011
     2014.73785         7.54090         6.61183
     2014.74058         8.16664         6.71298
     2014.74332        15.71439         6.65814
     2014.74606         5.88014         6.61305
     2014.74880         8.04689         6.58379
     2014.75154        -0.67236         6.87021
     2014.75427         1.35338         6.54601
     2014.75701        -1.01587         6.58379
     2014.75975         1.82688         6.61183
     2014.76249         2.43063         6.56551
     2014.76522         2.75738         6.59842
     2014.76796         4.34312         6.61426
     2014.77070         0.30087         6.57770
     2014.77344        -0.48438         6.59233
     2014.77618         3.32337         6.74955
     2014.77891         2.58412         6.67642
     2014.78165         5.35886         6.57161
     2014.78439         8.24261         6.54723
     2014.78713        14.31836         6.58501
     2014.78987         2.19611         6.57404
     2014.79260         1.88986         6.60451
     2014.79534         5.90160         6.55942
     2014.79808         4.80635         6.69470
     2014.80082        -2.62890         6.68617
     2014.80355        11.72085         6.74833
     2014.80629         9.05860         6.70811
     2014.80903        10.58734         6.52651
     2014.81177        13.02609         6.56064
     2014.81451         2.14284         6.62401
     2014.81724        15.61959         6.56673
     2014.81998         9.42734         6.59233
     2014.82272         8.47808         6.74102
     2014.82546        13.61083         6.59233
     2014.82820        -1.97642         6.55698
     2014.83093         2.66433         6.53504
     2014.83367         7.61908         6.54601
     2014.83641         1.24382         6.51798
     2014.83915         8.40957         6.47776
     2014.84188        10.60832         6.53383
     2014.84462         6.24507         6.57404
     2014.84736         2.20682         6.67764
     2014.85010         6.55856         6.68252
     2014.85284         2.44731         6.53139
     2014.85557         7.14606         6.65326
     2014.85831         1.78681         6.60939
     2014.86105        -0.89344         6.51067
     2014.86379        -5.20370         6.47532
     2014.86653        -9.10195         6.56308
     2014.86926        11.24380         6.53992
     2014.87200         7.70655         6.57770
     2014.87474         0.81330         6.63376
     2014.87748        -4.05696         6.57770
     2014.88021        -1.72921         6.66545
     2014.88295         1.67254         6.57161
     2014.88569         4.10029         6.82145
     2014.88843        11.47504         6.91164
     2014.89117        11.10478         6.88727
     2014.89390        -0.52947         6.78611
     2014.89664         4.55228         6.78977
     2014.89938         5.51703         6.80805
     2014.90212        -7.46622         6.78855
     2014.90485        -0.11547         6.79220
     2014.90759         8.56327         6.72517
     2014.91033        13.94802         6.70445
     2014.91307         4.02577         6.67155
     2014.91581         5.22452         6.68495
     2014.91854        13.28427         6.52408
     2014.92128        -1.21799         6.50579
     2014.92402         8.47176         6.54967
     2014.92676         2.21651         6.60330
     2014.92950        -1.35774         6.58989
     2014.93223        -3.47499         6.56308
     2014.93497        -5.78425         6.49239
     2014.93771        -1.16050         6.48507
     2014.94045        -0.39575         6.48386
     2014.94318         6.85500         6.72639
     2014.94592        -0.48825         6.44120
     2014.94866        -4.17251         6.51920
     2014.95140        -4.82976         6.39245
     2014.95414        -3.13201         6.43876
     2014.95687         2.46674         6.50092
     2014.95961         4.39449         6.49117
     2014.96235        -1.56377         6.43145
     2014.96509         5.01098         6.53626
     2014.96783         7.66673         6.52042
     2014.97056        12.70648         6.44729
     2014.97330         6.76223         6.46557
     2014.97604       -11.61503         6.46557
     2014.97878         4.33772         6.45826
     2014.98151         6.29947         6.60451
     2014.98425        -8.44778         6.48507
     2014.98699        -3.75403         6.46070
     2014.98973        -5.80729         6.47776
     2014.99247       -13.27954         6.44851
     2014.99520       -14.35879         6.45095
     2014.99794        -5.13504         6.44973
     2015.00068        -7.30629         6.45948
     2015.00342       -11.68755         6.42535
     2015.00616       -16.03980         6.45339
     2015.00889        -8.66105         6.51676
     2015.01163       -13.64630         6.54845
     2015.01437        -9.69655         6.56917
     2015.01711        -8.59281         6.54114
     2015.01984        -4.47906         6.56308
     2015.02258        -2.42331         6.67398
     2015.02532        -1.80456         6.55333
     2015.02806        -4.66681         6.59598
     2015.03080        -1.12507         6.56551
     2015.03353        -6.49632         6.56429
     2015.03627        -7.79057         6.54479
     2015.03901         0.69318         6.64108
     2015.04175         1.53193         6.68617
     2015.04449         0.87767         6.71786
     2015.04722        -0.88258         6.66180
     2015.04996        -5.06983         6.52286
     2015.05270        -6.36608         6.53261
     2015.05544        -7.75033         6.51311
     2015.05817        -4.57759         6.54967
     2015.06091        -5.64584         6.61426
     2015.06365        -3.93409         6.75564
     2015.06639        -4.58034         6.54236
     2015.06913        -6.08859         6.52651
     2015.07186       -10.09284         6.60939
     2015.07460        -9.34410         6.61183
     2015.07734       -14.00735         6.58623
     2015.08008       -13.71460         6.57161
     2015.08282        -5.74185         6.47045
     2015.08555        -1.92410         6.47776
     2015.08829         7.99764         6.65814
     2015.09103         6.87339         6.63255
     2015.09377        -1.75186         6.50336
     2015.09650        -4.56811         6.56429
     2015.09924         3.56964         6.68495
     2015.10198         2.36038         6.43876
     2015.10472        -3.69087         6.48751
     2015.10746        -1.22812         6.44729
     2015.11019       -12.24337         6.65448
     2015.11293       -11.43562         6.66545
     2015.11567        -9.54888         6.49726
     2015.11841        -9.93813         6.52164
     2015.12115        -6.19238         6.43998
     2015.12388        -8.75763         6.42292
     2015.12662       -10.12688         6.38757
     2015.12936        -8.00514         6.39976
     2015.13210       -10.12139         6.55820
     2015.13483       -11.87064         6.50579
     2015.13757        -6.60689         6.41439
     2015.14031        -8.27414         6.40464
     2015.14305        -7.11440         6.48264
     2015.14579        -9.96265         6.48386
     2015.14852        -9.54890         6.52042
     2015.15126        -9.60315         6.49117
     2015.15400        -7.94140         6.52773
     2015.15674         1.46434         6.51798
     2015.15948        -5.65591         6.49970
     2015.16221        -6.98016         6.52286
     2015.16495        -4.86141         6.49482
     2015.16769        -5.59166         6.48264
     2015.17043        -7.22192         6.52164
     2015.17316        -9.64017         6.65570
     2015.17590        -9.53742         6.68861
     2015.17864        -6.66067         6.50579
     2015.18138        -4.75392         6.49482
     2015.18412        -3.55618         6.49361
     2015.18685        -5.38843         6.50457
     2015.18959         1.47232         6.50457
     2015.19233        -1.64293         6.67398
     2015.19507        -7.71018         6.43754
     2015.19780        -2.88644         6.53992
     2015.20054         2.60831         6.51189
     2015.20328        -4.89494         6.52895
     2015.20602        -1.70719         6.55454
     2015.20876        -7.78244         6.49970
     2015.21149       -11.72870         6.51189
     2015.21423       -11.58995         6.71177
     2015.21697        -7.71020         6.51920
     2015.21971        -2.54045         6.53017
     2015.22245        -4.83570         6.47045
     2015.22518        -0.70696         6.46679
     2015.22792        -5.78121         6.50214
     2015.23066        -5.72246         6.44851
     2015.23340        -7.34571         6.59476
     2015.23613        -4.03996         6.63742
     2015.23887       -10.67422         6.76417
     2015.24161        -5.06447         6.80805
     2015.24435        -0.74672         6.80683
     2015.24709        -9.11797         6.62767
     2015.24982        -8.78822         6.45948
     2015.25256        -8.32547         6.44729
     2015.25530        -6.12773         6.55454
     2015.25804        -2.79398         6.56186
     2015.26078        -1.60023         6.48386
     2015.26351        -4.76448         6.44242
     2015.26625        -2.72573         6.48264
     2015.26899        -6.56999         6.48386
     2015.27173         0.10376         6.63011
     2015.27446         3.15751         6.65326
     2015.27720        -4.62674         6.50579
     2015.27994        -8.22599         6.54845
     2015.28268       -10.98025         6.56186
     2015.28542        -9.36750         6.73005
     2015.28815       -10.97675         6.75686
     2015.29089        -7.71200         6.61183
     2015.29363        -7.05525         6.59476
     2015.29637       -12.56551         6.59354
     2015.29911        -5.27676         6.58623
     2015.30184        -3.56101         6.61914
     2015.30458        -5.55126         6.55333
     2015.30732        -7.73351         6.39610
     2015.31006        -5.37877         6.42657
     2015.31279       -10.35802         6.42048
     2015.31553        -9.17327         6.48142
     2015.31827        -9.97752         6.47532
     2015.32101       -13.06377         6.43510
     2015.32375        -8.63503         6.41926
     2015.32648       -13.56728         6.56917
     2015.32922        -8.29753         6.63864
     2015.33196       -10.43678         6.51189
     2015.33470        -7.14303         6.49482
     2015.33744       -13.00729         6.41439
     2015.34017       -13.98054         6.43876
     2015.34291       -11.20779         6.41804
     2015.34565        -5.45604         6.47532
     2015.34839        -5.45329         6.49482
     2015.35112        -8.78355         6.42535
     2015.35386        -4.70880         6.47045
     2015.35660        -4.08505         6.51067
     2015.35934        -9.21530         6.53626
     2015.36208        -9.52955         6.51676
     2015.36481         0.45619         6.48142
     2015.36755         1.92294         6.49482
     2015.37029        -8.17631         6.44364
     2015.37303        -8.94056         6.42414
     2015.37577        -1.90081         6.43389
     2015.37850        -6.18107         6.70445
     2015.38124        -4.90432         6.52651
     2015.38398        -0.99957         6.58014
     2015.38672        -0.99382         6.48995
     2015.38945        -8.91307         6.50457
     2015.39219        -2.50733         6.60573
     2015.39493        -5.92158         6.55454
     2015.39767       -12.36683         6.52895
     2015.40041        -9.18008         6.47411
     2015.40314        -8.84933         6.68617
     2015.40588       -12.42559         6.61670
     2015.40862       -11.88984         6.67155
     2015.41136        -9.55609         6.56429
     2015.41410        -8.34934         6.58745
     2015.41683        -0.38959         6.53383
     2015.41957        -9.46484         6.56917
     2015.42231        -4.02610         6.64473
     2015.42505       -14.93435         6.73127
     2015.42778        -9.79560         6.52651
     2015.43052       -12.42285         6.52164
     2015.43326       -12.14110         6.51920
     2015.43600        -3.21736         6.65448
     2015.43874        -5.26961         6.60573
     2015.44147        -7.87686         6.72517
     2015.44421        -9.18811         6.53139
     2015.44695        -7.87536         6.50214
     2015.44969       -12.62762         6.51189
     2015.45243        -5.52187         6.73492
     2015.45516        -1.19212         6.73492
     2015.45790        -8.50837         6.71055
     2015.46064       -10.09762         6.76905
     2015.46338        -7.58088         6.70811
     2015.46611        -3.61213         6.57648
     2015.46885        -1.73938         6.63498
     2015.47159        -2.82363         6.52042
     2015.47433       -10.92488         6.76417
     2015.47707        -7.31914         6.74345
     2015.47980        -8.12239         6.73248
     2015.48254        -7.62064         6.65570
     2015.48528        -5.63589         6.64108
     2015.48802        -5.76214         6.56186
     2015.49076         2.94460         6.78124
     2015.49349        -5.95365         6.68739
     2015.49623         0.87910         6.80439
     2015.49897        -8.55715         6.76417
     2015.50171        -2.87340         6.50823
     2015.50444        -1.66866         6.56186
     2015.50718        -7.54391         6.66667
     2015.50992        -3.64316         6.66301
     2015.51266         6.09259         6.71908
     2015.51540        -3.96366         6.67033
     2015.51813         1.62708         6.52529
     2015.52087         0.50983         6.61670
     2015.52361         2.88958         6.63255
     2015.52635        -4.62067         6.61548
     2015.52908        -0.05092         6.55942
     2015.53182         9.50782         6.62036
     2015.53456         3.33957         6.52164
     2015.53730        -2.43768         6.54358
     2015.54004        -3.28293         6.58867
     2015.54277        -5.84018         6.58014
     2015.54551        -1.59144         6.58501
     2015.54825        -3.75869         6.58258
     2015.55099         5.33506         6.50823
     2015.55373         4.12281         6.62889
     2015.55646        10.98856         6.62645
     2015.55920         3.32830         6.53017
     2015.56194        -1.87995         6.54967
     2015.56468         1.32080         6.64108
     2015.56741         1.50855         6.51432
     2015.57015         3.32430         6.67764
     2015.57289        -0.25396         6.62645
     2015.57563        -0.48421         6.44242
     2015.57837         0.64254         6.60330
     2015.58110        -1.07571         6.56308
     2015.58384        -0.14196         6.53383
     2015.58658         0.02978         6.65083
     2015.58932         4.25053         6.91408
     2015.59206         1.90228         6.89824
     2015.59479         5.37403         6.72152
     2015.59753         3.30878         6.66545
     2015.60027         3.64553         6.78367
     2015.60301         7.81627         6.92627
     2015.60574         6.01502         6.77514
     2015.60848         1.67977         6.77149
     2015.61122         5.91452         6.63620
     2015.61396         9.50927         6.61426
     2015.61670         2.17001         6.53504
     2015.61943         5.68876         6.53139
     2015.62217         3.31151         6.52408
     2015.62491         7.46426         6.56673
     2015.62765         3.49801         6.57039
     2015.63039         6.80075         6.56308
     2015.63312         1.47950         6.56795
     2015.63586        10.37425         6.66789
     2015.63860         1.24600         6.54479
     2015.64134         5.22075         6.55942
     2015.64407        -0.12151         6.54358
     2015.64681         5.02624         6.64839
     2015.64955         3.86199         6.54358
     2015.65229         1.28274         6.52773
     2015.65503         4.44049         6.51676
     2015.65776         8.32123         6.74467
     2015.66050         7.09198         6.50092
     2015.66324         9.24773         6.48629
     2015.66598         9.24548         6.63986
     2015.66872         5.30423         6.63986
     2015.67145        10.40897         6.48507
     2015.67419         6.72872         6.51432
     2015.67693        10.95547         6.49970
     2015.67967         4.85722         6.50092
     2015.68240         0.56897         6.53261
     2015.68514         0.75071         6.56795
     2015.68788         2.33246         6.54967
     2015.69062         5.69821         6.50945
     2015.69336        -0.60604         6.71055
     2015.69609         6.19971         6.55942
     2015.69883         8.18145         6.60330
     2015.70157         8.91920         6.61914
     2015.70431         7.17695         6.52286
     2015.70705         6.48070         6.51067
     2015.70978        12.97545         6.54358
     2015.71252         6.23419         6.52773
     2015.71526         4.35894         6.52651
     2015.71800         4.35169         6.47532
     2015.72073         4.98044         6.41439
     2015.72347         5.13419         6.42535
     2015.72621        -0.48907         6.53626
     2015.72895        -0.48532         6.54967
     2015.73169         1.95043         6.55454
     2015.73442        -1.13082         6.60451
     2015.73716        10.71393         6.42657
     2015.73990         5.98967         6.54236
     2015.74264         1.91142         6.56673
     2015.74538         6.21317         6.81902
     2015.74811        -0.75608         6.88605
     2015.75085         0.00267         6.43754
     2015.75359         7.74341         6.49482
     2015.75633         9.22416         6.41439
     2015.75906         6.68191         6.44486
     2015.76180         2.83566         6.48995
     2015.76454         7.98041         6.83608
     2015.76841         4.68888        14.34248
     2015.77002         9.42490         6.49482
     2015.77275         6.41265         6.42048
     2015.77549        15.40140         6.64108
     2015.77823        18.65715         6.59598
     2015.78097        14.28390         6.47411
     2015.78371        16.03564         6.47776
     2015.78644        13.53739         6.41317
     2015.78918        14.27514         6.40220
     2015.79192        16.89789         6.44851
     2015.79466        21.52264         6.49361
     2015.79739        19.63338         6.39001
     2015.80013        14.64713         6.43632
     2015.80287        10.20388         6.39367
     2015.80561         9.80363         6.55698
     2015.80835        10.17538         6.40829
     2015.81108         9.14212         6.43754
     2015.81382        15.57987         6.53870
     2015.81656        13.36162         6.53992
     2015.81930        10.45037         6.53870
     2015.82203        17.76512         6.52408
     2015.82477        19.09986         6.53139
     2015.82751         8.27861         6.60208
     2015.83025        17.15836         6.58867
     2015.83299        16.75211         6.64351
     2015.83572        19.58586         6.54601
     2015.83846        11.83360         6.52164
     2015.84120         4.91935         6.49361
     2015.84394         6.32910         6.54236
     2015.84668         5.99885         6.56673
     2015.84941         9.07860         6.49970
     2015.85215        24.17234         6.52773
     2015.85489        19.32709         6.59964
     2015.85763         8.49184         6.60817
     2015.86036        12.16359         6.62401
     2015.86310         9.71034         6.68008
     2015.86584        10.82908         6.58379
     2015.86858        11.80083         6.57161
     2015.87132        13.58358         6.59476
     2015.87405         6.89433         6.67520
     2015.87679        17.59708         6.74833
     2015.87953        11.76482         6.76539
     2015.88227        19.69157         6.66545
     2015.88501        12.15532         6.58014
     2015.88774         7.08807         6.59720
     2015.89048        12.92182         6.66301
     2015.89322        14.42056         6.64839
     2015.89596        12.35631         6.59964
     2015.89869        13.50106         6.59354
     2015.90143        -0.18519         6.51798
     2015.90417         5.73256         6.56308
     2015.90691         7.61830         6.67642
     2015.90965         7.60905         6.62889
     2015.91238         9.83480         6.65936
     2015.91512         7.40055         6.67764
     2015.91786        15.59630         6.63742
     2015.92060        16.35604         6.64717
     2015.92334        10.09579         6.70689
     2015.92607         1.90854         6.60086
     2015.92881         7.55729         6.60573
     2015.93155        27.49004         6.78611
     2015.93429        25.72078         6.80439
     2015.93702        17.03953         6.86046
     2015.93976        22.04528         6.89580
     2015.94250        14.82303         6.80805
     2015.94524        10.52678         6.78733
     2015.94798        15.23553         6.79830
     2015.95071        14.71227         6.63011
     2015.95345         3.62102         6.58745
     2015.95619         6.66777         6.55820
     2015.95893        10.45452         6.70567
     2015.96167        24.76227         6.79220
     2015.96440        11.23901         6.54723
     2015.96714         9.31176         6.55820
     2015.96988        11.95851         6.64351
     2015.97262        21.33426         6.59598
     2015.97535         6.66201         6.60695
     2015.97809         8.17375         6.59233
     2015.98083         1.37350         6.59233
     2015.98357        -5.76475         6.60086
     2015.98631        -2.66100         6.59598
     2015.98904        -0.72925         6.58623
     2015.99178        -2.50351         6.56551
     2015.99452        -2.17276         6.56795
     2015.99726         2.28899         6.60451
     2016.00000        -1.70126         6.56673
     2016.00273         0.11449         6.60939
     2016.00547         2.30623         6.59964
     2016.00821         2.09298         6.63133
     2016.01095         6.61573         6.61914
     2016.01368         3.21848         6.64230
     2016.01642         4.39023         6.78245
     2016.01916        -1.25103         6.95064
     2016.02190         3.98772         6.76417
     2016.02464         3.37547         6.59233
     2016.02737        -2.25978         6.66545
     2016.03011         6.07597         6.61670
     2016.03285         8.56071         6.60817
     2016.03559         8.18446         6.50214
     2016.03833         2.22221         6.67033
     2016.04106         7.64996         6.60939
     2016.04380        12.01571         6.52895
     2016.04654        10.96245         6.50579
     2016.04928        10.50920         6.52164
     2016.05201         5.67895         6.55454
     2016.05475         3.71470         6.51067
     2016.05749         5.08445         6.53139
     2016.06023        11.71819         6.59233
     2016.06297         5.99294         6.45095
     2016.06570         0.58369         6.60695
     2016.06844        -4.10556         6.62158
     2016.07118        -3.34681         6.65814
     2016.07392         5.97093         6.65326
     2016.07666        11.58768         6.78002
     2016.07939         7.10743         6.61061
     2016.08213         1.72518         6.84339
     2016.08487        -0.30807         6.57039
     2016.08761        -7.20733         6.57404
     2016.09034        -4.14058         6.67033
     2016.09308        -5.08183         6.61305
     2016.09582        -7.47808         6.57161
     2016.09856        -7.07933         6.59842
     2016.10130        -8.57859         6.60451
     2016.10403       -13.92384         6.62889
     2016.10677        -8.47409         6.62401
     2016.10951        -7.76934         6.61061
     2016.11225       -10.64459         6.59476
     2016.11498        -7.07785         6.57404
     2016.11772        -6.14210         6.58623
     2016.12046         2.65965         6.57161
     2016.12320         2.90740         6.62036
     2016.12594        -1.81285         6.51432
     2016.12867         3.37590         6.60086
     2016.13141         9.40964         6.52042
     2016.13415        11.72239         6.52042
     2016.13689        -3.94886         6.56917
     2016.13963        -6.16411         6.49239
     2016.14236       -12.78736         6.50092
     2016.14510        -7.93662         6.56064
     2016.14784        -9.81987         6.48995
     2016.15058        -6.19212         6.60451
     2016.15331        -3.70737         6.70080
     2016.15605        -2.44462         6.51676
     2016.15879        -6.24588         6.72395
     2016.16153       -10.04313         6.63133
     2016.16427        -5.07938         6.67276
     2016.16700        -4.91163         6.53139
     2016.16974        -0.95188         6.53383
     2016.17248        -5.89014         6.68008
     2016.17522         0.35861         6.56551
     2016.17796         5.70636         6.58501
     2016.18069        -0.41189         6.66180
     2016.18343        -3.84114         6.79464
     2016.18617         3.38460         6.51798
     2016.18891         2.30335         6.46557
     2016.19164         0.44510         6.44364
     2016.19438         5.32285         6.37539
     2016.19712         6.88260         6.37660
     2016.19986         3.45034         6.56795
     2016.20260       -12.07991         6.57283
     2016.20533        -7.57016         6.69470
     2016.20807        -5.15841         6.72152
     2016.21081       -11.61066         6.59598
     2016.21355        -8.81292         6.50457
     2016.21629        -2.26417         6.47532
     2016.21902        -1.91342         6.42292
     2016.22176        -3.53267         6.40098
     2016.22450        -9.33792         6.43510
     2016.22724       -13.49618         6.50336
     2016.22997        -7.44243         6.37295
     2016.23271        -7.66668         6.38148
     2016.23545        -4.73193         6.39976
     2016.23819        -5.99818         6.36807
     2016.24093        -4.31644         6.51189
     2016.24366        -7.68369         6.43876
     2016.24640        -4.83494         6.39976
     2016.24914        -5.96219         6.43145
     2016.25188        -5.93044         6.48386
     2016.25462        -3.83570         6.45826
     2016.25735        -8.27595         6.45217
     2016.26009       -13.35120         6.40829
     2016.26283       -14.08445         6.45217
     2016.26557        -8.71370         6.45582
     2016.26830        -4.05096         6.50214
     2016.27104        -2.70921         6.43023
     2016.27378         3.30654         6.45704
     2016.27652        -6.60671         6.40829
     2016.27926         1.70404         6.47532
     2016.28199       -12.30822         6.55576
     2016.28473        -1.76647         6.42779
     2016.28747        -9.37972         6.48873
     2016.29021        -6.65997         6.48264
     2016.29295       -10.34422         6.49726
     2016.29568        -7.89247         6.48386
     2016.29842        -3.16473         6.61426
     2016.30116        -4.17798         6.66301
     2016.30390       -13.57823         6.52529
     2016.30663         0.26052         6.52651
     2016.30937        -0.42773         6.46314
     2016.31211        -0.29899         6.51676
     2016.31485        -6.76824         6.43023
     2016.31759        -4.93949         6.49970
     2016.32032        -8.88474         6.50823
     2016.32306        -5.86099         6.43145
     2016.32580        -4.17725         6.49604
     2016.32854        -3.90950         6.45948
     2016.33128        -1.62575         6.48386
     2016.33401        -5.64700         6.54358
     2016.33675        -6.85825         6.55942
     2016.33949        -0.13151         6.57404
     2016.34223        -0.34776         6.61792
     2016.34496        -5.39501         6.74833
     2016.34770         4.07074         6.77758
     2016.35044        -2.78151         6.72761
     2016.35318        -2.84877         6.46923
     2016.35592        -8.23302         6.49361
     2016.35865       -13.71827         6.49848
     2016.36139       -10.33052         6.53626
     2016.36413        -0.48977         6.49726
     2016.36687         3.81097         6.67886
     2016.36961         6.70272         6.47289
     2016.37234         5.68547         6.41804
     2016.37508         2.66222         6.48020
     2016.37782       -12.96203         6.44851
     2016.38056        -3.07829         6.59476
     2016.38329        -1.17954         6.38757
     2016.38603        -5.58679         6.50336
     2016.38877         6.74896         6.46801
     2016.39151        -0.02629         6.41439
     2016.39425        -2.60955         6.43876
     2016.39698         1.41720         6.51432
     2016.39972         1.74195         6.43145
     2016.40246        -8.48630         6.56551
     2016.40520        -4.40355         6.50092
     2016.40794       -10.41181         6.51676
     2016.41067        -9.59406         6.50823
     2016.41341       -11.30031         6.50579
     2016.41615        -6.05356         6.54479
     2016.41889       -12.38681         6.47532
     2016.42162        -5.48307         6.52042
     2016.42436        -8.86232         6.48507
     2016.42710        -1.66757         6.63620
     2016.42984       -11.08982         6.50823
     2016.43258        -1.26407         6.57526
     2016.43531        12.21667         6.85192
     2016.43805         3.49442         6.51432
     2016.44079        -8.52883         6.48995
     2016.44353        -3.37508         6.45339
     2016.44626        -6.83833         6.51676
     2016.44900        -5.35759         6.48995
     2016.45174         2.66816         6.50092
     2016.45448        -0.26809         6.43267
     2016.45722        -1.87034         6.43632
     2016.45995         9.49641         6.46923
     2016.46269         8.79615         6.41317
     2016.46543        -1.45510         6.42048
     2016.46817        -2.38735         6.48995
     2016.47091         1.09040         6.46801
     2016.47364        -2.90585         6.54479
     2016.47638         7.21490         6.58136
     2016.47912        -1.97636         6.57039
     2016.48186        -2.15661         6.43267
     2016.48459        -0.60486         6.48751
     2016.48733        -5.87611         6.58136
     2016.49007        -3.13436         6.58623
     2016.49281        -3.53262         6.63742
     2016.49555         1.04713         6.47532
     2016.49828        -2.55712         6.49361
     2016.50102        -3.89937         6.51311
     2016.50376        -1.96762         6.80683
     2016.50650        -0.72988         6.66789
     2016.50924        -0.43113         6.47289
     2016.51197        -3.80038         6.49848
     2016.51471        -3.02063         6.50701
     2016.51745         1.69412         6.70445
     2016.52019         7.64886         6.54601
     2016.52292         2.28561         6.48995
     2016.52566         7.31636         6.44364
     2016.52840         2.26711         6.48142
     2016.53114        -3.24714         6.44486
     2016.53388        -4.00540         6.44729
     2016.53661         0.12535         6.50214
     2016.53935        -0.46890         6.38635
     2016.54209         4.37085         6.55576
     2016.54483        22.13960         6.61305
     2016.54757         1.58434         6.57526
     2016.55030         4.24209         6.68008
     2016.55304        -3.42016         6.56064
     2016.55578         7.09359         6.53748
     2016.55852        -1.21966         6.47654
     2016.56125        -1.11392         6.49361
     2016.56399         0.46983         6.53017
     2016.56673         1.40758         6.60330
     2016.56947         0.62933         6.69348
     2016.57221        -0.39992         6.50336
     2016.57494        -1.68518         6.65814
     2016.57768         6.39057         6.54479
     2016.58042         4.12732         6.47289
     2016.58316        -2.39893         6.49848
     2016.58590         0.41382         6.45339
     2016.58863         1.64856         6.50823
     2016.59137        -5.45169         6.51554
     2016.59411         3.83006         6.56795
     2016.59685         8.68081         6.57892
     2016.59958        -1.44444         6.54845
     2016.60232         4.08130         6.47898
     2016.60506         4.00305         6.52408
     2016.60780         3.22380         6.55089
     2016.61054         0.57155         6.55698
     2016.61327        -1.43770         6.63011
     2016.61601        -3.80596         6.47045
     2016.61875         0.42579         6.51067
     2016.62149        -0.13446         6.48995
     2016.62423         5.74229         6.68495
     2016.62696         7.83104         6.54236
     2016.62970        -1.50922         6.45704
     2016.63244        -0.16647         6.55942
     2016.63518         1.88028         6.46557
     2016.63791         9.43903         6.46192
     2016.64065         9.19478         6.45095
     2016.64339         3.09053         6.50336
     2016.64613         1.41227         6.41926
     2016.64887         4.89902         6.45461
     2016.65160         3.47977         6.51920
     2016.65434         0.71752         6.46557
     2016.65708         0.81027         6.48629
     2016.65982         2.09901         6.58136
     2016.66256         4.51676         6.51920
     2016.66529         2.97051         6.47167
     2016.66803         9.51126         6.44486
     2016.67077         7.73701         6.59720
     2016.67351        13.46175         6.53504
     2016.67624        14.20850         6.45948
     2016.67898         9.64125         6.43876
     2016.68172        10.01200         6.59233
     2016.68446        10.22775         6.68008
     2016.68720         4.23549         6.82267
     2016.68993         7.66224         6.56064
     2016.69267         1.22199         6.36563
     2016.69541         3.05174         6.44973
     2016.69815         9.95749         6.45095
     2016.70089         5.81323         6.43754
     2016.70362         6.73298         6.61305
     2016.70636         5.49273         6.68373
     2016.70910         8.31948         6.74589
     2016.71184        12.35023         6.27545
     2016.71457        14.18897         6.34979
     2016.71731        17.87972         6.32298
     2016.72005         6.58647         6.27910
     2016.72279         7.75122         6.25229
     2016.72553         8.01897         6.37417
     2016.72826        15.09971         6.49604
     2016.73100         7.91146         6.26204
     2016.73374         1.26521         6.36929
     2016.73648         5.86696         6.28641
     2016.73921         5.48471         6.27545
     2016.74195         6.94545         6.27301
     2016.74469         4.38920         6.46436
     2016.74743         7.42495         6.33882
     2016.75017        11.15370         6.28763
     2016.75290         6.40245         6.29982
     2016.75564         6.73019         6.24498
     2016.75838        21.99294         6.24741
     2016.76112        19.15069         6.25960
     2016.76386        19.21644         6.27910
     2016.76659         6.23819         6.32420
     2016.76933         7.00593         6.26082
     2016.77207         1.81368         6.29495
     2016.77481        11.96343         6.41317
     2016.77754        13.82118         6.29495
     2016.78028        10.37093         6.24985
     2016.78302        13.53167         6.35345
     2016.78576        18.02542         6.27788
     2016.78850        21.47317         6.30592
     2016.79123        20.66092         6.30713
     2016.79397        22.15467         6.32785
     2016.79671        12.45941         6.32298
     2016.79945         2.30516         6.25838
     2016.80219        -0.00309         6.34370
     2016.80492        11.14166         6.40342
     2016.80766         9.18041         6.34857
     2016.81040         0.29215         6.31445
     2016.81314         6.08090         6.32663
     2016.81587        10.86965         6.35954
     2016.81861         7.31140         6.29251
     2016.82135         7.21615         6.30957
     2016.82409        12.41890         6.30104
     2016.82683        13.39564         6.29982
     2016.82956        10.28539         6.34126
     2016.83230        10.20614         6.24010
     2016.83504        10.67189         6.24620
     2016.83778         0.14464         6.28154
     2016.84052         3.35838         6.38026
     2016.84325         3.46213         6.39245
     2016.84599         0.73788         6.43145
     2016.84873        11.93463         6.31932
     2016.85147         1.92038         6.36563
     2016.85420         1.61212         6.46801
     2016.85694         4.80087         6.47898
     2016.85968         0.97262         6.66545
     2016.86242         0.68437         6.40585
     2016.86516         5.45412         6.46801
     2016.86789         7.30786         6.46679
     2016.87063        10.96961         6.36320
     2016.87337        11.90936         6.66058
     2016.87611         9.11811         6.44729
     2016.87885         0.82186         6.26326
     2016.88158         0.42460         6.25351
     2016.88432         3.23335         6.33273
     2016.88706         7.05410         6.39245
     2016.88980        14.54385         6.41682
     2016.89253         4.24160         6.29007
     2016.89527         8.31434         6.28398
     2016.89801         5.29209         6.28276
     2016.90075         3.19084         6.27545
     2016.90349         4.48159         6.44851
     2016.90622         8.48734         6.43998
     2016.90896         3.33208         6.31079
     2016.91170         2.86583         6.26204
     2016.91444         4.12758         6.31688
     2016.91718         0.03633         6.41195
     2016.91991        -4.26492         6.46436
     2016.92265        -1.33118         6.38270
     2016.92539         5.65057         6.29251
     2016.92813         0.22632         6.40220
     2016.93086        -6.48593         6.42170
     2016.93360       -13.87618         6.42048
     2016.93634        -9.52044         6.45217
     2016.93908        10.28431         6.63255
     2016.94182        11.75206         6.38757
     2016.94455        -3.36919         6.33151
     2016.94729        -0.94144         6.36929
     2016.95003        -3.24670         6.37417
     2016.95277       -20.92495         6.39123
     2016.95824        -1.90445         6.33029
     2016.96098        -1.26070         6.33882
     2016.96372        -6.31396         6.45948
     2016.96646         0.48679         6.48629
     2016.96919         5.33854         6.44973
     2016.97193        -5.41671         6.39489
     2016.97467        -2.09096         6.36807
     2016.97741         5.40278         6.41926
     2016.98015         6.49353         6.52286
     2016.98288         2.18528         6.36442
     2016.98562        -2.17897         6.45704
     2016.98836        -1.20922         6.36198
     2016.99110         3.36953         6.36563
     2016.99384        -0.12773         6.42292
     2016.99657         3.32802         6.43754
     2016.99931         2.91577         6.44851
     2017.00205        -0.53448         6.29007
     2017.00479        -6.34173         6.30470
     2017.00752        -8.52499         6.36198
     2017.01026       -12.25024         6.49604
     2017.01300        -7.40449         6.52286
     2017.01574         0.99826         6.36807
     2017.01848         1.01201         6.39854
     2017.02121         9.06075         6.37173
     2017.02395         3.42850         6.43023
     2017.02669         6.24425         6.51920
     2017.02943        12.85400         6.41560
     2017.03216        -3.63125         6.49726
     2017.03490        -6.67851         6.38270
     2017.03764        -7.74676         6.47045
     2017.04038        -3.54301         6.42048
     2017.04312        -5.06926         6.44120
     2017.04585        -1.61451         6.65448
     2017.04859        16.60323         6.74467
     2017.05133         6.46198         6.37295
     2017.05407         6.38673         6.41195
     2017.05681         7.40048         6.42170
     2017.05954        -2.86177         6.37417
     2017.06228         0.44797         6.38514
     2017.06502        -5.02528         6.40585
     2017.06776        -6.15553         6.40585
     2017.07049        -7.07578         6.42292
     2017.07323        -9.50403         6.39610
     2017.07597       -10.87729         6.42414
     2017.07871        -9.43154         6.38270
     2017.08145        -6.28779         6.48264
     2017.08418        -6.39204         6.44729
     2017.08692        -3.42129         6.42414
     2017.08966       -10.55455         6.43998
     2017.09240        -6.67780         6.43389
     2017.09514        12.28195         6.45217
     2017.09787         6.15470         6.43023
     2017.10061         9.03045         6.39123
     2017.10335         0.36719         6.43876
     2017.10609         4.05794         6.41682
     2017.10882         7.77169         6.41073
     2017.11156        -1.75056         6.41317
     2017.11430        -9.44881         6.45948
     2017.11704       -14.52307         6.38879
     2017.11978       -12.71832         6.37904
     2017.12251       -11.88857         6.44607
     2017.12525         2.66518         6.48264
     2017.12799         6.47693         6.43632
     2017.13073        -0.82033         6.40951
     2017.13347         1.00242         6.36198
     2017.13620         1.79617         6.42535
     2017.13894         1.62792         6.44486
     2017.14168         3.38767         6.48995
     2017.14442        -8.11159         6.43267
     2017.14715        -8.78984         6.39367
     2017.14989       -10.10209         6.38026
     2017.15263        -3.88134         6.43754
     2017.15537        -4.52559         6.48142
     2017.15811        -2.06685         6.61792
     2017.16084        -4.30110         6.40951
     2017.16632        -8.42860         6.43510
     2017.16906        -8.32885         6.44729
     2017.17180         0.04790         6.47289
     2017.17727        -6.22061         6.48629
     2017.18001        -3.53486         6.37295
     2017.18275         3.36889         6.39976
     2017.18548         7.73264         6.46436
     2017.18822       -12.43662         6.54479
     2017.19096       -10.29687         6.43267
     2017.19370        -9.90012         6.41804
     2017.19644        -9.05137         6.41195
     2017.19917        -5.94162         6.45461
     2017.20191         1.94512         6.50214
     2017.20465        -3.83913         6.58379
     2017.21013        10.03137         6.44486
     2017.21286         4.16412         6.44607
     2017.21560        -4.45614         6.46192
     2017.21834        -1.83539         6.59598
     2017.22108         4.73336         6.37904
     2017.22381        -6.53989         6.48629
     2017.22655         4.54786         6.54479
     2017.22929        -7.31340         6.39123
     2017.23203        -1.63765         6.45095
     2017.23477        -1.14390         6.44242
     2017.23750       -12.72015         6.33638
     2017.24024         0.33960         6.38392
     2017.24298        -6.45966         6.41804
     2017.24572        -7.29591         6.44120
     2017.24846       -13.41116         6.48995
     2017.25119        -8.86341         6.39367
     2017.25393        -8.61966         6.35832
     2017.25667       -12.96992         6.40829
     2017.25941       -14.37717         6.48142
     2017.26214        -6.71142         6.52042
     2017.26488        -1.69067         6.44973
     2017.26762        -7.39592         6.39001
     2017.27036        -7.12618         6.41560
     2017.27310        -7.71943         6.43632
     2017.27583        -9.41968         6.52408
     2017.27857        -8.01793         6.44607
     2017.28131       -12.98318         6.45339
     2017.28405       -14.70944         6.40707
     2017.28679       -13.38869         6.38392
     2017.28952       -11.67494         6.47776
     2017.29226        -1.59919         6.44729
     2017.29500        -5.99344         6.48507
     2017.29774       -13.76870         6.39367
     2017.30047       -11.47595         6.34370
     2017.30321       -11.12520         6.42292
     2017.30595       -12.92045         6.52164
     2017.30869       -11.65070         6.47045
     2017.31143        -2.32096         6.40707
     2017.31416       -11.13521         6.42170
     2017.31690         2.11054         6.41560
     2017.31964        -7.41471         6.61548
     2017.32238       -13.02396         6.58014
     2017.32512       -15.65122         6.43632
     2017.32785       -14.23647         6.46070
     2017.33059       -18.36772         6.44607
     2017.33333       -19.65297         6.41317
     2017.33607        -9.63022         6.40585
     2017.33880       -11.87847         6.51554
     2017.34154        -9.11073         6.65570
     2017.34428       -15.48498         6.39610
     2017.34702       -12.47323         6.36442
     2017.34976       -12.41048         6.40585
     2017.35523       -15.47799         6.40464
     2017.35797       -15.20624         6.41560
     2017.36071        -6.88949         6.41073
     2017.36344        -7.28374         6.39976
     2017.36618       -11.52999         6.37904
     2017.36892        -5.91825         6.44486
     2017.37166        -2.64750         6.39976
     2017.37440        -6.48975         6.41073
     2017.37713       -12.04400         6.52408
     2017.37987       -20.07525         6.55942
     2017.38261        -7.19751         6.40098
     2017.38535        -9.20876         6.36198
     2017.38809        -8.95201         6.35832
     2017.39082        -8.28026         6.38514
     2017.39356        -7.18651         6.39245
     2017.39630        -5.77877         6.29982
     2017.39904        -6.05802         6.35101
     2017.40177        -7.28427         6.34248
     2017.40451        -8.45052         6.43876
     2017.40725       -11.95377         6.39001
     2017.40999        -5.81003         6.43267
     2017.41273        -6.48128         6.39123
     2017.41546       -10.17553         6.37417
     2017.41820        -5.54578         6.50701
     2017.42094        -6.48903         6.43998
     2017.42368        -8.82229         6.53504
     2017.42642        -5.89154         6.32176
     2017.42915        -6.72779         6.35223
     2017.43189        -5.19304         6.49239
     2017.43463        -1.23829         6.51676
     2017.43737         4.45345         6.38635
     2017.44010         3.20120         6.33760
     2017.44284         2.00595         6.33760
     2017.44558         1.24870         6.38635
     2017.44832        -8.42755         6.43998
     2017.45106        -0.05581         6.45095
     2017.45379        -5.86806         6.56795
     2017.45653        -4.86931         6.59842
     2017.45927        -4.71256         6.43023
     2017.46201        -7.33081         6.46923
     2017.46475        -2.91407         6.53261
     2017.46748         2.85168         6.75930
     2017.47022        -1.42157         6.42901
     2017.47296        -3.72182         6.42170
     2017.47570        -9.24607         6.40464
     2017.47843       -10.45333         6.44242
     2017.48117       -12.85858         6.54358
     2017.48391         7.13017         6.64595
     2017.48665        -4.31608         6.37660
     2017.48939        -8.08633         6.40464
     2017.49212        -5.85759         6.36198
     2017.49486        -7.45884         6.43754
     2017.49760        -4.51309         6.57404
     2017.50034        -3.70334         6.39245
     2017.50308        -2.58259         6.40342
     2017.50581        -9.41185         6.42170
     2017.50855        -5.66210         6.45826
     2017.51129        -7.19635         6.48873
     2017.51403        -4.22060         6.49482
     2017.51676        -5.19985         6.50336
     2017.51950       -11.50510         6.42779
     2017.52224        -1.28136         6.47898
     2017.52498        -5.33161         6.39610
     2017.52772        -4.90986         6.61426
     2017.53045        -5.04811         6.43023
     2017.53319        -9.05736         6.51676
     2017.53593        -8.58262         6.56186
     2017.53867         0.05913         6.43389
     2017.54141        -0.99612         6.45826
     2017.54414        -1.00637         6.55576
     2017.54688        -2.01162         6.61305
     2017.54962        -5.77488         6.45704
     2017.55236        -3.85713         6.47898
     2017.55509        -1.56238         6.37660
     2017.55783        -3.10463         6.35832
     2017.56057        -3.77188         6.38270
     2017.56331         1.13886         6.34126
     2017.56605        -1.94339         6.44607
     2017.56878        -4.93164         6.39610
     2017.57152        -3.47189         6.48264
     2017.57426        -6.26414         6.34492
     2017.57700        -5.14140         6.35345
     2017.57974        -7.07665         6.33882
     2017.58247        -3.53390         6.37051
     2017.58521        -5.90415         6.34248
     2017.58795        -9.96040         6.45339
     2017.59069        -4.11266         6.53017
     2017.59342        -1.94891         6.33882
     2017.59616        -4.14116         6.38270
     2017.59890         0.42259         6.42657
     2017.60164         0.81734         6.43389
     2017.60438        -7.11492         6.39976
     2017.60711        -1.55317         6.38148
     2017.60985         2.00358         6.64108
     2017.61259         3.57833         6.44120
     2017.61533        -1.23192         6.47045
     2017.61807        10.01782         6.53017
     2017.62080        -2.08743         6.37417
     2017.62354         0.24432         6.40220
     2017.62628        -2.52393         6.53261
     2017.62902         0.73582         6.68983
     2017.63175        -1.89344         6.40464
     2017.63449        -4.05669         6.29738
     2017.63723        -1.15394         6.34370
     2017.63997        -2.29319         6.37782
     2017.64271         0.70256         6.37660
     2017.64544         4.88830         6.35954
     2017.64818         1.74905         6.47532
     2017.65092         1.43180         6.34857
     2017.65366        -2.35445         6.37539
     2017.65639         0.38730         6.33517
     2017.65913        -0.94596         6.33517
     2017.66187         1.10379         6.40464
     2017.66461         2.96054         6.49117
     2017.66735         1.46829         6.45704
     2017.67008         1.95204         6.37782
     2017.67282        -0.34322         6.49482
     2017.67556         1.12753         6.36320
     2017.67830         4.51128         6.38392
     2017.68104        -2.83097         6.35588
     2017.68377         8.98978         6.69592
     2017.68651        14.63253         6.60330
     2017.68925         8.89227         6.44851
     2017.69199        -0.61698         6.40585
     2017.69472         2.89777         6.37539
     2017.69746         6.40352         6.51920
     2017.70020         6.59727         6.38392
     2017.70294         5.31201         6.47898
     2017.70568         1.29376         6.30713
     2017.70841         5.41551         6.32420
     2017.71115         4.22026         6.50214
     2017.71389        13.62401         6.40829
     2017.71663        18.59675         6.37539
     2017.75222         6.11248         6.40220
     2017.75496         5.31023         6.41317
     2017.75770         1.27697         6.52529
     2017.76043        -0.89628         6.40342
     2017.76317         5.24547         6.46557
     2017.76591         6.01422         6.47045
     2017.76865        10.96297         6.40098
     2017.77138         0.29871         6.38148
     2017.77412         1.19346         6.45948
     2017.77686         1.79521         6.42535
     2017.77960         6.53396         6.39489
     2017.78234         3.05271         6.37539
     2017.78507         0.73245         6.35467
     2017.78781        -1.14080         6.38392
     2017.79055        -0.71505         6.47411
     2017.79329         3.53870         6.49239
     2017.79603         5.80045         6.40342
     2017.79876        12.58919         6.59111
     2017.80150        11.50294         6.57404
     2017.80424        13.08969         6.45948
     2017.80698        11.08844         6.50336
     2017.80971         2.72019         6.47411
     2017.81245        -2.71307         6.48386
     2017.81519        -1.04632         6.38270
     2017.81793        -0.11757         6.40585
     2017.82067         5.24318         6.47654
     2017.82340         1.54693         6.39610
     2017.82614         1.44067         6.39245
     2017.82888         2.29642         6.36076
     2017.83162         5.16817         6.49604
     2017.83436         7.43192         6.45095
     2017.83709        -0.16733         6.46801
     2017.83983        -3.35259         6.34004
     2017.84257         1.44516         6.42535
     2017.84531        -0.43509         6.43632
     2017.84804        -9.01434         6.35954
     2017.85078        -3.72059         6.39610
     2017.85352        -6.92885         6.43510
     2017.85626        -3.02310         6.52042
     2017.85900        -0.35535         6.59476
     2017.86173        -1.58060         6.66545
     2017.86447        -8.89585         6.41317
     2017.86721         1.89490         6.48142
     2017.86995        -8.63336         6.50214
     2017.87269        -7.71561         6.46192
     2017.87542         4.10314         6.34126
     2017.87816        -9.83111         6.36929
     2017.88090        -6.15236         6.46314
     2017.88364        -7.88462         6.43389
     2017.88637         5.45613         6.42414
     2017.88911         4.78188         6.38514
     2017.89185        -5.54037         6.54236
     2017.89459         5.49038         6.55454
     2017.89733        -2.83788         6.54723
     2017.90006        -6.69613         6.52773
     2017.90280        -8.15138         6.48142
     2017.90554        -0.63163         6.45826
     2017.90828        -3.70688         6.57770
     2017.91102        -4.12714         6.60208
     2017.91375        -8.64239         6.53504
     2017.91649        -9.03464         6.53626
     2017.91923        -4.40689         6.56673
     2017.92197        -6.59814         6.53383
     2017.92470       -10.10940         6.54479
     2017.92744       -14.20565         6.49604
     2017.93018       -14.11190         6.50336
     2017.93292       -16.75415         6.46679
     2017.93566       -13.31440         6.58014
     2017.93839       -11.31166         6.56429
     2017.94113       -13.48391         6.49848
     2017.94387       -10.86116         6.48020
     2017.94661        -9.05641         6.46436
     2017.94935       -10.51466         6.56917
     2017.95208       -11.72892         6.63864
     2017.95482       -11.11317         6.46436
     2017.95756        -7.30442         6.51798
     2017.96030        -3.53667         6.47532
     2017.96303       -12.78792         6.50214
     2017.96577        -1.74118         6.58623
     2017.96851        -0.38643         6.43510
     2017.97125        -4.75768         6.43267
     2017.97399        -4.40393         6.54358
     2017.97672        -8.25618         6.44607
     2017.97946       -12.56644         6.46923
     2017.98220        -6.09369         6.43632
     2017.98494       -14.15494         6.44486
     2017.98767       -10.06819         6.49726
     2017.99041       -10.01744         6.50092
     2017.99315        -7.23370         6.49726
     2017.99589        -9.96195         6.60817
     2017.99863       -13.06620         6.49848
     2018.00136       -17.13345         6.48264
     2018.00410       -18.04270         6.53139
     2018.00684       -17.18196         6.49482
     2018.00958       -15.05321         6.49848
     2018.01232        -9.81246         6.48264
     2018.01505        -7.31571         6.36929
     2018.01779       -11.34196         6.46557
     2018.02053        -9.54522         6.37295
     2018.02327         7.03353         6.47776
     2018.02600        -6.96772         6.51554
     2018.02874        -6.45697         6.43754
     2018.03148       -11.22622         6.41560
     2018.03422       -18.64147         6.43389
     2018.03696       -18.81173         6.37539
     2018.03969       -14.65098         6.40585
     2018.04243       -11.15723         6.39245
     2018.04517       -17.18848         6.39854
     2018.04791        -8.41673         6.48142
     2018.05065       -15.74999         6.32907
     2018.05338        -9.47224         6.35954
     2018.05612       -10.46749         6.40951
     2018.05886       -15.73874         6.40342
     2018.06160       -10.60399         6.41317
     2018.06433        -8.57625         6.50336
     2018.06707        -8.35650         6.54236
     2018.06981       -13.42875         6.54358
     2018.07255       -18.59100         6.55333
     2018.07529       -11.07925         6.52529
     2018.07802       -14.65151         6.54358
     2018.08076       -14.36176         6.59842
     2018.08350       -12.50601         6.52408
     2018.08624       -16.26126         6.58745
     2018.08898        -4.49751         6.57404
     2018.09171       -11.93977         6.56551
     2018.09445       -16.33602         6.59233
     2018.09719        -0.56227         6.69592
     2018.09993       -13.97752         6.51189
     2018.10266       -15.76677         6.58623
     2018.10540       -11.23003         6.66180
     2018.10814        -9.21828         6.55698
     2018.11088       -15.41353         6.54967
     2018.11362       -12.56678         6.51798
     2018.11635       -16.88103         6.55089
     2018.11909       -19.57629         6.62401
     2018.12183       -10.13054         6.64595
     2018.12457       -15.40379         6.57770
     2018.12731       -18.47604         6.53383
     2018.13004        -5.16329         6.54967
     2018.13278        -8.73755         6.52408
     2018.13552       -10.05580         6.53139
     2018.13826       -11.93005         6.50336
     2018.14099       -17.88830         6.50214
     2018.14373       -14.71955         6.52895
     2018.14647       -14.44681         6.86655
     2018.14921       -12.89906         6.66423
     2018.15195       -11.18631         6.52042
     2018.15468       -13.75556         6.57892
     2018.15742       -11.88381         6.51067
     2018.16016       -13.41007         6.51676
     2018.16290       -14.71232         6.73614
     2018.16564       -14.99557         6.65326
     2018.16837       -14.14682         6.52164
     2018.17111       -13.56407         6.51676
     2018.17385       -16.87533         6.53748
     2018.17659       -13.93958         6.58989
     2018.17932       -13.57683         6.62889
     2018.18206        -8.16208         6.67033
     2018.18480        -5.86733         6.62889
     2018.18754       -12.50459         6.41439
     2018.19028       -15.74184         6.47654
     2018.19301       -14.16709         6.49117
     2018.19575        -1.84134         6.39367
     2018.19849        -4.98959         6.33029
     2018.20123        -6.75185         6.53261
     2018.20397        -9.33110         6.36198
     2018.20670        -7.60235         6.35588
     2018.20944        -8.48660         6.35832
     2018.21218       -13.63085         6.34248
     2018.21492       -25.31710         6.47532
     2018.21765        -2.14836         6.42170
     2018.22039        -5.59761         6.50945
     2018.22313       -13.41186         6.37173
     2018.22587       -13.27811         6.37539
     2018.22861       -19.42636         6.44242
     2018.23134       -18.12462         6.43876
     2018.23408       -18.40687         6.45461
     2018.23682       -18.62712         6.38026
     2018.23956       -16.73937         6.37051
     2018.24230       -17.08562         6.40220
     2018.24503       -16.32888         6.42048
     2018.24777       -10.59613         6.41804
     2018.25051        -8.69938         6.42901
     2018.25598       -10.14788         6.46801
     2018.25872        -4.39714         6.54723
     2018.26146        -0.58439         6.54601
     2018.26420        -3.48464         6.52651
     2018.26694        -3.72589         6.40220
     2018.26967       -16.60814         6.35588
     2018.27241       -17.16840         6.41073
     2018.27515        -4.16565         6.39610
     2018.27789        -1.30090         6.48386
     2018.28062       -14.91815         6.51432
     2018.28336       -13.46540         6.39489
     2018.28610       -12.58866         6.37904
     2018.28884         3.16709         6.35345
     2018.29158       -15.65516         6.65083
     2018.29431       -18.87941         6.46314
     2018.29705       -13.00166         6.36320
     2018.29979       -15.95492         6.36076
     2018.30253       -13.84317         6.39610
     2018.30527       -13.08342         6.30470
     2018.30800       -12.85367         6.30835
     2018.31074       -14.22692         6.28520
     2018.31348       -19.41218         6.37904
     2018.31622       -13.16843         6.34735
     2018.31895        -8.41168         6.68130
     2018.32169        -9.62793         6.30104
     2018.32443        -6.73518         6.32785
     2018.32717       -13.25344         6.36198
     2018.32991       -12.66469         6.66911
     2018.33264        -9.10194         6.37904
     2018.33538       -15.24919         6.54479
     2018.33812       -10.37444         6.74589
     2018.34086       -10.58670         6.35101
     2018.34360       -10.65195         6.41804
     2018.34633       -12.59420         6.41195
     2018.34907        -9.84345         6.36563
     2018.35181         1.34030         6.40829
     2018.35455        -6.21696         6.36442
     2018.35728        -5.81521         6.29495
     2018.36002         0.68854         6.41560
     2018.36276        -1.85171         6.43145
     2018.36550       -11.97796         6.45948
     2018.36824        -7.19122         6.48142
     2018.37097         3.70453         6.39610
     2018.37371        -1.61172         6.42901
     2018.37645        -2.37897         6.57161
     2018.37919        -3.78222         6.39001
     2018.38193        -7.93447         6.43876
     2018.38466         1.93827         6.44729
     2018.38740        -4.36398         6.41804
     2018.39014        -4.13123         6.47532
     2018.39288        -3.63548         6.45948
     2018.39561         9.94427         6.44364
     2018.39835         4.36801         6.44486
     2018.40109         3.39576         6.43023
     2018.40383        -2.89049         6.37904
     2018.40657         0.43926         6.52408
     2018.40930         2.02501         6.61305
     2018.41204         3.93575         6.44364
     2018.41478         0.22450         6.41804
     2018.41752        -9.49875         6.47167
     2018.42026        -6.07400         6.51554
     2018.42299        -0.32125         6.52529
     2018.42573         0.59649         6.41073
     2018.42847        -1.77676         6.44242
     2018.43121        -4.12801         6.49970
     2018.43394        -7.95526         6.51189
     2018.43668         1.60649         6.44364
     2018.43942        -8.60877         6.42414
     2018.44216         2.83898         6.37782
     2018.44490        -8.63727         6.45704
     2018.44763        -5.24752         6.38635
     2018.45037        -5.95277         6.43998
     2018.45311        -4.28803         6.35588
     2018.45585         1.13372         6.42170
     2018.45859         3.34247         6.44607
     2018.46132        -0.65778         6.41073
     2018.46406        -6.85103         6.52042
     2018.46680        -9.44429         6.61305
     2018.46954       -16.81454         6.53870
     2018.47227        -2.98779         6.61792
     2018.47501         1.20496         6.47654
     2018.47775        -5.96329         6.43632
     2018.48049        -6.04055         6.55698
     2018.48323        -0.27080         6.47898
     2018.48596        -7.63505         6.49726
     2018.48870        -5.37330         6.60573
     2018.49144        -6.01355         6.38148
     2018.49418        -6.54781         6.48264
     2018.49692        -6.72106         6.54723
     2018.49965        -6.13131         6.39732
     2018.50239       -10.12756         6.41804
     2018.50513       -10.25781         6.45826
     2018.50787        -7.95807         6.51432
     2018.51060       -11.03932         6.48020
     2018.51334        -6.90757         6.46070
     2018.51608       -10.46282         6.48507
     2018.51882        -7.51807         6.50945
     2018.52156        -5.90533         6.45217
     2018.52429        -3.37358         6.38514
     2018.52703        -7.46583         6.48264
     2018.52977        -5.97908         6.40951
     2018.53251        -5.31233         6.48995
     2018.53525        -3.62459         6.45217
     2018.53798        -5.42084         6.53139
     2018.54072        -7.66509         6.48264
     2018.54620        -5.54159         6.45095
     2018.54893        -1.62985         6.37904
     2018.55167        -8.58710         6.46801
     2018.55441        -6.62735         6.42170
     2018.55715        -6.34260         6.57283
     2018.55989        -6.92185         6.62767
     2018.56262        -0.94710         6.52895
     2018.56536        -9.14936         6.46801
     2018.56810        -4.81661         6.53261
     2018.57084        -6.31786         6.45704
     2018.57357        -0.96011         6.54479
     2018.57631         1.07264         6.68983
     2018.57905        -5.56762         6.71786
     2018.58179         0.05013         6.64717
     2018.58453         0.50988         6.63620
     2018.58726         0.94163         6.45339
     2018.59000         0.49438         6.40829
     2018.59274        -1.03788         6.37539
     2018.59548         0.96687         6.48629
     2018.59822         3.36862         6.44729
     2018.60095        -1.82663         6.45948
     2018.60369        -0.24588         6.44607
     2018.60643        -0.87114         6.46192
     2018.60917         3.76361         6.40220
     2018.61190        -2.29064         6.47776
     2018.61464        -2.31589         6.50823
     2018.61738         5.46586         6.50092
     2018.62012         1.78860         6.46801
     2018.62286         7.05735         6.85071
     2018.62559        -4.98990         6.66911
     2018.62833        -1.07715         6.49239
     2018.63107         0.82160         6.48995
     2018.63655        -1.79491         6.43267
     2018.63928        -2.79716         6.67886
     2018.64202        -3.21841         6.71786
     2018.64476         0.08734         6.54601
     2018.64750         1.04208         6.50823
     2018.65023         3.90883         6.49848
     2018.65297         5.27358         6.44607
     2018.65571         1.83233         6.47532
     2018.65845         1.14308         6.47654
     2018.66119        -2.97018         6.54967
     2018.66392        -0.21643         6.42901
     2018.66666         3.58532         6.54723
     2018.66940         0.42207         6.47654
     2018.67214        -0.66918         6.52286
     2018.67488        -1.33444         6.54358
     2018.67761         2.64231         6.39610
     2018.68035        -1.16794         6.57526
     2018.68309        -2.89819         6.50336
     2018.68583        -2.36544         6.42170
     2018.68856         2.32130         6.54845
     2018.69130        -0.08095         6.54236
     2018.69404         8.08480         6.63011
     2018.69678         4.49855         6.41073
     2018.69952         2.42330         6.39001
     2018.70225        -1.65496         6.50701
     2018.70499        -3.18421         6.48142
     2018.70773         3.30854         6.53748
     2018.71047         0.00229         6.46436
     2018.71321        -1.95596         6.38514
     2018.71594         0.77078         6.37539
     2018.71868        -4.85147         6.44729
     2018.72142        -7.30572         6.50336
     2018.72416        -4.33097         6.55333
     2018.72689         4.76378         6.43145
     2018.72963        -2.50247         6.43510
     2018.73237        -7.92773         6.35467
     2018.73511        -7.32998         6.48020
     2018.73785        -2.73223         6.40707
     2018.74058        -5.42748         6.42779
     2018.74332         3.84027         6.39610
     2018.74606         5.74701         6.39489
     2018.74880        -2.58724         6.32785
     2018.75427         4.32426         6.50823
     2018.75701        -2.31199         6.72273
     2018.75975        -1.02125         6.37782
     2018.76522        -1.62875         6.58867
     2018.76796        -2.93400         6.43998
     2018.77070         0.65075         6.48873
     2018.77344         5.75449         6.39367
     2018.77618        -2.67676         6.36807
     2018.77891         3.76899         6.37782
     2018.78165        -2.32426         6.43998
     2018.78439        -0.49451         6.47167
     2018.78713        -5.86077         6.42292
     2018.78987        -9.80602         6.55211
     2018.79260        -7.19127         6.39610
     2018.79534         0.62248         6.42170
     2018.79808        -6.25377         6.43998
     2018.80082         0.69397         6.43754
     2018.80355         0.63072         6.44607
     2018.80629         2.66047         6.58258
     2018.80903         0.55622         6.51554
     2018.81177         1.33697         6.80195
     2018.81451         1.25971         6.47898
     2018.81724         3.64946         6.42779
     2018.81998        12.45021         6.46557
     2018.82272        12.45796         6.43876
     2018.82546         7.99271         6.46314
     2018.82820        -1.51355         6.45582
     2018.83093         3.20120         6.46923
     2018.83367        -0.19305         6.39001
     2018.83641         4.09270         6.66180
     2018.83915        -1.76255         6.43023
     2018.84188        -9.37081         6.74955
     2018.84462         1.80394         6.46314
     2018.84736        -1.33531         6.46436
     2018.85010        -1.06056         6.43510
     2018.85284        -6.12281         6.42779
     2018.85557       -11.99107         6.46923
     2018.85831        -6.43332         6.44729
     2018.86105        -6.34157         6.47776
     2018.86379        -5.52182         6.59476
     2018.86653        -3.22107         6.45582
     2018.86926       -14.11733         6.53626
     2018.87200        -3.77458         6.52408
     2018.87474        -0.79083         6.36320
     2018.87748         4.34892         6.48264
     2018.88021        -4.71533         6.53017
     2018.88295        -5.34759         6.60208
     2018.88569        -3.20984         6.62401
     2018.88843        -2.56809         6.59964
     2018.89117         8.45366         6.56917
     2018.89390        16.45041         6.55089
     2018.89664        -3.92085         6.85314
     2018.89938        -4.53310         6.50092
     2018.90212        -2.75835         6.52286
     2018.90485        12.83940         6.45826
     2018.90759         4.37815         6.56429
     2018.91033         7.26090         6.43145
     2018.91307        -1.22836         6.55576
     2018.91581         6.50739         6.45217
     2018.91854         4.56914         6.54236
     2018.92128         0.46889         6.44486
     2018.92402        -0.77136         6.47654
     2018.92676        -0.41662         6.40585
     2018.92950        -0.18687         6.46557
     2018.93223        -0.77812         6.62889
     2018.93497        -0.52737         6.49970
     2018.93771        -3.16062         6.46070
     2018.94045         4.37612         6.38148
     2018.94318         0.74987         6.38270
     2018.94592         9.90362         6.40098
     2018.94866         2.62437         6.48751
     2018.95140         1.67812         6.57039
     2018.95414         9.72586         6.38392
     2018.95687         4.37361         6.41439
     2018.95961        10.35136         6.38514
     2018.96235        12.74411         6.45217
     2018.96509         2.68586         6.42657
     2018.96783         0.36460         6.41926
     2018.97056        -1.41165         6.41560
     2018.97330        -6.82490         6.37051
     2018.97604        -0.54215         6.37782
     2018.97878        -2.54440         6.41195
     2018.98151        -0.39766         6.47898
     2018.98425         0.47009         6.80683
     2018.98699       -11.46816         6.59111
     2018.98973        -9.36041         6.50336
     2018.99247        -6.83066         6.57892
     2018.99520        -5.12492         6.61183
     2018.99794       -10.86617         6.56673
     2019.00068       -11.23442         6.60086
     2019.00342       -13.38567         6.55576
     2019.00616        -8.69992         6.49848
     2019.00889        -4.47818         6.53626
     2019.01163        -4.30843         6.50457
     2019.01437        -2.60868         6.51676
     2019.01711         3.28707         6.54479
     2019.01984        -8.86118         6.46070
     2019.02258       -13.85644         6.54479
     2019.02532        -0.04769         6.61792
     2019.02806        -6.75094         6.58379
     2019.03080        -7.36619         6.58867
     2019.03353        -3.99544         6.52895
     2019.03627       -12.56870         6.51920
     2019.03901        -3.35395         6.52773
     2019.04175        -3.71820         6.44607
     2019.04449         7.83155         6.54601
     2019.04722        -0.50870         6.75442
     2019.04996         3.17504         6.63620
     2019.05270        -3.11521         6.82999
     2019.05544        -8.13046         6.63620
     2019.05817       -13.35071         6.66423
     2019.06091        -3.31296         6.68008
     2019.06365        -7.96122         6.65326
     2019.06639        -8.56447         6.62401
     2019.06913       -10.67772         6.69348
     2019.07186        -9.43797         6.67155
     2019.07460        -8.50222         6.61183
     2019.07734        -3.77447         6.55454
     2019.08008        -4.25073         6.54479
     2019.08282        -4.57898         6.69592
     2019.08555        -2.13623         6.44851
     2019.08829         1.53052         6.50214
     2019.09103         5.89127         6.53261
     2019.09377         2.81001         6.49970
     2019.09650        -3.35724         6.48264
     2019.09924        -2.17549         6.48020
     2019.10198        -9.53274         6.50092
     2019.10472        -6.97399         6.53870
     2019.10746        -6.13825         6.47776
     2019.11019        -7.75850         6.45826
     2019.11293        -2.87975         6.69470
     2019.11567        -6.89900         6.75686
     2019.11841         9.91075         6.49361
     2019.12388         4.55824         6.63011
     2019.12662         2.03799         6.55942
     2019.12936        -8.90126         6.52651
     2019.13210        -8.59851         6.49482
     2019.13483        -8.94977         6.65448
     2019.13757       -16.16802         6.47776
     2019.14031       -11.60327         6.49848
     2019.14305        -5.01252         6.46436
     2019.14579        -8.12377         6.51920
     2019.14852        -3.33303         6.61183
     2019.15126        -7.85728         6.51554
     2019.15948        -9.07603         6.62401
     2019.16221       -15.37829         6.70323
     2019.16495       -10.44954         6.55698
     2019.16769       -18.64679         6.46801
     2019.17043       -16.49504         6.50457
     2019.17316       -12.67529         6.51798
     2019.17590        -3.07855         6.50579
     2019.17864        -7.47480         6.57892
     2019.18138       -10.41305         6.49970
     2019.18412       -16.34330         6.56186
     2019.18685       -13.40855         6.53992
     2019.18959       -13.01681         6.45582
     2019.19233        -5.69806         6.46436
     2019.19507       -11.20031         6.41195
     2019.19780       -17.22656         6.41439
     2019.20054       -17.15081         6.55820
     2019.20328       -17.36107         6.51676
     2019.20602       -17.93432         6.37782
     2019.20876       -16.06957         6.41560
     2019.21149       -20.54982         6.41560
     2019.21423       -12.75607         6.44242
     2019.21697        -4.43233         6.42414
     2019.21971       -13.97258         6.63864
     2019.22245        -5.49183         6.40829
     2019.22518       -13.89508         6.37904
     2019.22792       -12.42033         6.47045
     2019.23066       -14.75159         6.39854
     2019.23340        -7.85484         6.38392
     2019.23613       -14.37809         6.37782
     2019.23887       -14.56034         6.44486
     2019.24161       -17.06559         6.57526
     2019.24435       -16.20285         6.58867
     2019.24709       -10.67510         6.52895
     2019.24982         1.38065         6.33882
     2019.25256        -2.93760         6.47898
     2019.25530       -11.06185         6.45217
     2019.25804        -1.87510         6.49726
     2019.26078        -5.82636         6.48873
     2019.26351         5.39839         6.45461
     2019.27545        -7.14299        12.73736
     2019.27829        -3.00117        14.60939
     2019.27994        -8.30012         6.36563
     2019.28268        -5.53337         6.34370
     2019.28542        -5.40062         6.36807
     2019.28815        -6.78388         6.43876
     2019.29089       -13.37413         6.48751
     2019.29363       -10.66938         6.37051
     2019.29637       -15.04763         6.53139
     2019.29911        -0.99888         6.45826
     2019.30184        -6.14414         6.42901
     2019.30458       -12.47339         6.45948
     2019.30732       -15.08764         6.39367
     2019.31006        -2.35489         6.55820
     2019.31279       -15.80814         6.56186
     2019.31553        -5.78240         6.42657
     2019.31827        -8.95965         6.43145
     2019.32101       -11.35890         6.40585
     2019.32375       -19.74715         6.42048
     2019.32648       -13.55340         6.39732
     2019.32922       -13.49366         6.48020
     2019.33196       -12.67791         6.55820
     2019.33470       -10.11616         6.59720
     2019.33744        -9.42941         6.48264
     2019.34017       -14.72166         6.44242
     2019.34291        -9.90292         6.39245
     2019.34565        -9.59317         6.47045
     2019.34839       -16.21442         6.54845
     2019.35112       -11.09867         6.43267
     2019.35386       -12.32292         6.41317
     2019.35660       -10.28018         6.36929
     2019.35934        -7.58843         6.46557
     2019.36208        -8.67168         6.48873
     2019.36481        -1.83993         6.42779
     2019.36755         0.32082         6.58623
     2019.37029        -6.25344         6.47411
     2019.37303         3.65031         6.43510
     2019.37577        -2.30394         6.60573
     2019.37850         3.90581         6.46070
     2019.38124         7.18056         6.40220
     2019.38398         5.07330         6.46314
     2019.38672         0.22705         6.39123
     2019.38945         0.97880         6.49361
     2019.39219        -5.34545         6.53383
     2019.39493        -5.29970         6.53626
     2019.39767        12.13504         6.48264
     2019.40041         8.50379         6.50823
     2019.40314         5.82554         6.44851
     2019.40588         8.43029         6.60939
     2019.40862        -2.72296         6.48751
     2019.41136         0.70878         6.41682
     2019.41410        -0.77847         6.49482
     2019.41683        -2.37072         6.53261
     2019.41957         2.51003         6.54358
     2019.42231        -7.29822         6.41195
     2019.42505        -2.87147         6.46192
     2019.42885        -2.17205        15.86229
     2019.43025         2.72785         6.94455
     2019.43326       -14.81923         6.46070
     2019.43600       -15.94048         6.47411
     2019.43874       -18.18373         6.53870
     2019.44147       -14.66399         6.47289
     2019.44421       -13.45424         6.62401
     2019.44695       -15.38949         6.49239
     2019.44969        -1.41274         6.53383
     2019.45243       -10.19799         6.53504
     2019.45516       -10.11125         6.49604
     2019.45790        -9.91250         6.49482
     2019.46064        -9.38375         6.53870
     2019.46338       -11.78400         6.83486
     2019.46885         0.65149         6.70323
     2019.47159        -3.86476         6.53383
     2019.47433        -1.27701         6.54479
     2019.47707        -3.27526         6.57283
     2019.47980        -7.15851         6.54967
     2019.48528         3.62498         6.53626
     2019.48802        -8.35527         6.51920
     2019.49076        -6.26652         6.46192
     2019.49349        -5.42977         6.38148
     2019.49623        -1.71603         6.51554
     2019.49897        -3.80228         6.38026
     2019.50171        -0.81353         6.43267
     2019.50444        -4.86978         6.43267
     2019.50718       -16.55903         6.39001
     2019.50992       -11.54529         6.50457
     2019.51266        -4.81354         6.49604
     2019.51813        -8.17504         6.43632
     2019.52087       -13.49329         6.39367
     2019.52361        -9.56255         6.44486
     2019.52635        -8.38680         6.41317
     2019.52908        -5.93005         6.66789
     2019.53182        -7.07830         6.64108
     2019.53456       -12.21455         6.58136
     2019.53730        -0.28381         6.61914
     2019.54004        -5.77506         6.52529
     2019.54277        -5.16231         6.70323
     2019.54551         2.39344         6.81536
     2019.54825        -7.09781         6.41195
     2019.55099        -7.98407         6.47289
     2019.55373        -6.74132         6.74345
     2019.55646        -4.43157         6.75686
     2019.55920        -7.12282         6.76052
     2019.56194        -6.25807         6.37782
     2019.56468       -13.29633         6.54236
     2019.56741        -5.88458         6.45339
     2019.57015        -6.46183         6.41560
     2019.57289        -8.75708         6.58258
     2019.57563        -9.33133         6.48020
     2019.57837         0.69841         6.71664
     2019.58110        -4.37984         6.46314
     2019.58384       -10.08909         6.59111
     2019.58658        -8.88434         6.49726
     2019.58932        -4.34459         6.51554
     2019.59206        -6.22985         6.66545
     2019.59479        -3.58210         6.49361
     2019.59753         2.76665         6.97746
     2019.60027        -9.84860         6.86289
     2019.60301        -4.42585         6.54723
     2019.60574         0.08190         6.77027
     2019.60848       -10.35636         6.69958
     2019.61122        -6.13661         6.41439
     2019.61396        -8.57786         6.57404
     2019.61670        -3.95611         6.46314
     2019.61943        -1.03736         6.46070
     2019.62217        -0.43562         6.57526
     2019.62491        -4.19987         6.43998
     2019.62765        -0.72712         6.45461
     2019.63039         0.14163         6.47776
     2019.63312        -0.09562         6.58623
     2019.63586         6.86512         6.70811
     2019.63860         4.39787         6.55089
     2019.64134        -3.40238         6.53383
     2019.64407        -3.96163         6.47289
     2019.64681        -9.14388         6.47045
     2019.64955        -5.81814         6.46436
     2019.65229        -0.53739         6.47289
     2019.65503        -6.31764         6.60330
     2019.65776        -8.74989         6.60451
     2019.66050         3.03186         6.62036
     2019.66324        -5.74940         6.46314
     2019.66598        -3.35465         6.45461
     2019.66872         4.82610         6.46557
     2019.67145        -6.40415         6.50579
     2019.67419        -4.46140         6.47532
     2019.67693         0.17134         6.79586
     2019.67967        17.39209         6.82145
     2019.68240        -3.02216         6.49726
     2019.68514        -3.90941         6.47776
     2019.68788        12.37034         6.66545
     2019.69062        10.09208         6.48507
     2019.69336         1.86383         6.41073
     2019.69609        -6.81442         6.40585
     2019.69883        -6.57967         6.52773
     2019.70157        -5.08592         6.41195
     2019.70431        -4.53218         6.40098
     2019.70705         3.11457         6.37660
     2019.70978         1.49032         6.37782
     2019.71252         6.80807         6.42657
     2019.71526         1.28582         6.38757
     2019.71800         5.48856         6.61183
     2019.72073        -0.37069         6.57039
     2019.72347        -6.62694         6.38392
     2019.72621        -1.29619         6.43876
     2019.72895        -4.14044         6.48386
     2019.73169         0.56330         6.41926
     2019.73442        -2.75495         6.40220
     2019.73716         7.44580         6.48629
     2019.73990        -3.11445         6.66545
     2019.74264        -3.17570         6.50336
     2019.74538        -4.83996         6.39245
     2019.75359        -1.58471         6.66911
     2019.75633        -5.29296         6.43267
     2019.75906         1.66678         6.33151
     2019.76180        -3.73547         6.35832
     2019.76454        -2.60772         6.39001
     2019.76728         2.18503         6.51189
     2019.77002         4.45378         6.44607
     2019.77275        -3.21947         6.63133
     2019.77549        -1.71373         6.49970
     2019.77823        -0.16498         6.48751
     2019.78097         1.11777         6.44973
     2019.78371         6.45952         6.46801
     2019.78644        -2.62573         6.47289
     2019.78918         2.13101         6.53626
     2019.79131        12.63638         8.72152
     2019.79466        10.85651         6.46679
     2019.79739        15.43526         6.46192
     2019.79977         0.57677         7.64656
     2019.80287        -9.59625         6.49726
     2019.80561        -8.28450         6.55333
     2019.80835        -1.37675         6.46801
     2019.80983        -6.02180        21.91592
     2019.81382        -0.04925         6.48995
     2019.81656         4.04349         6.57039
     2019.81930         0.83224         6.52164
     2019.82203        -4.68301         6.50579
     2019.82477        -3.74726         6.46923
     2019.82751        -5.71951         6.50457
     2019.83025        -2.67377         6.65570
     2019.83299        -2.83302         6.64839
     2019.83572        -1.24527         6.49970
     2019.83846         2.45748         6.48873
     2019.84120         0.09723         6.45704
     2019.84394        -2.86303         6.68495
     2019.84668        -5.32128         6.52529
     2019.84941        -0.00053         6.50336
     2019.85215        -0.29178         6.51676
     2019.85489        -1.83103         6.49848
     2019.85763        -1.30729         6.51432
     2019.86036         3.88946         6.48264
     2019.86310         1.25921         6.52408
     2019.86584         7.30696         6.66545
     2019.86858         3.35071         6.50214
     2019.87132         2.14245         6.58745
     2019.87405         7.59820         6.51554
     2019.87679        -1.75505         6.59720
     2019.87953         8.85570         6.54236
     2019.88227        23.09545         6.45217
     2019.88384        22.50645        17.97564
     2019.88774         9.23394         6.62889
     2019.89048         7.36569         6.45339
     2019.89322         6.89044         6.46314
     2019.89596         4.86619         6.46436
     2019.89869         4.99493         6.45095
     2019.90143        -0.60432         6.42657
     2019.90417         6.81943         6.42779
     2019.90587        13.14452        13.65266
     2019.90965         2.26793         6.45826
     2019.91238         3.54867         6.42901
     2019.91512         7.86842         6.42657
     2019.91786        12.85117         6.40220
     2019.92060         9.67692         6.44120
     2019.92607         5.44341         6.47776
     2019.92881         3.32016         6.47532
     2019.93155        15.05391         6.41317
     2019.93429        12.24066         6.42657
     2019.93702         0.78141         6.42901
     2019.93889        -0.10040        11.20293
     2019.94250        -0.35510         6.45095
     2019.94524        10.72165         6.44242
     2019.94798        -1.32560         6.41439
     2019.95071         2.87615         6.78977
     2019.95345         7.10890         6.44851
     2019.95619         1.51064         6.44973
     2019.95893        -4.12061         6.43632
     2019.96167        -2.51786         6.44364
     2019.96440         8.31389         6.57526
     2019.96714         1.28864         6.58745
     2019.96988        -5.35262         6.44120
     2019.97262        -3.56087         6.48507
     2019.97535        -0.70512         6.41682
     2019.97809        -2.47737         6.40951
     2019.98083        -3.56662         6.45339
     2019.98357        -6.68688         6.42170
     2019.98631        -2.10513         6.42901
     2019.98904        -4.56838         6.46679
     2019.99178        -1.54263         6.44364
     2019.99452        -3.34388         6.43632
     2020.00000        19.88361         6.48751
     2020.00273         4.87236         6.49361
     2020.00547        -0.83089         6.59354
     2020.00821        -2.04314         6.59111
     2020.01095         2.49360         6.56429
     2020.01368        -6.09865         6.55942
     2020.01642        -4.46990         6.60086
     2020.01916        -4.43515         6.44486
     2020.02190        -2.23040         6.57283
     2020.02464        -4.70066         6.55211
     2020.02737         5.54209         6.44364
     2020.03011         0.28384         6.51920
     2020.03285        -7.53641         6.47776
     2020.03559        -4.75466         6.32785
     2020.03833       -10.54792         6.33029
     2020.04106        -7.03217         6.47898
     2020.04380       -10.51942         6.53748
     2020.04654        -4.08467         6.29982
     2020.04928        -7.01692         6.31323
     2020.05201        -8.91018         6.34126
     2020.05475        -5.04443         6.32298
     2020.05749        -0.61068         6.41439
     2020.06023         2.12207         6.38026
     2020.06297        -0.44118         6.34248
     2020.06570         2.05556         6.38270
     2020.06844         9.30931         6.34004
     2020.07118         0.08106         6.40098
     2020.07392         9.38681         6.41804
     2020.07666        -5.61944         6.39732
     2020.07939        -2.46470         6.33273
     2020.08213        -1.80395         6.40829
     2020.08487        -4.04220         6.41073
     2020.08761        -2.50345         6.39367
     2020.09034        -2.75070         6.40707
     2020.09308        -5.24296         6.41317
     2020.09582        -7.99521         6.42779
     2020.09856         8.49554         6.42901
     2020.10130        -7.18471         6.38270
     2020.10403        -7.33296         6.41804
     2020.10677        -8.07522         6.42170
     2020.10951       -12.19247         6.42292
     2020.11225       -11.07472         6.41926
     2020.11498        -4.96097         6.39245
     2020.11772        -9.37122         6.51798
     2020.12046       -10.96548         6.62889
     2020.12320        -9.36773         6.43145
     2020.12594       -10.84498         6.42292
     2020.12867       -12.89923         6.37051
     2020.13141        -9.72348         6.34248
     2020.13415       -11.30873         6.36198
     2020.13689        -7.67099         6.54479
     2020.13963        -6.71624         6.58989
     2020.14236        -7.30149         6.44120
     2020.14510        -4.05074         6.42657
     2020.14784       -11.75999         6.40951
     2020.15058        -9.87725         6.43754
     2020.15331       -15.40350         6.45339
     2020.15495       -12.30245        16.39124
     2020.15879        -5.73700         6.45826
     2020.16153        -4.70825         6.40707
     2020.16427        -4.10651         6.40951
     2020.16700        -3.87376         6.41560
     2020.16974        -4.19501         6.42292
     2020.17248        -3.82026         6.45339
     2020.17522        -3.97951         6.38392
     2020.17796        -2.91977         6.35954
     2020.18069        -4.77802         6.39367
     2020.18343        -2.86527         6.36198
     2020.18617        -8.21652         6.38392
     2020.18891        -7.29677         6.55942
     2020.19164        -6.74203         6.49117
     2020.19438        -9.06228         6.49970
     2020.19712        -6.27653         6.51067
     2020.19986        -5.53878         6.52529
     2020.20260        -9.69403         6.53017
     2020.20533        -4.04829         6.51554
     2020.20807         1.14946         6.48751
     2020.21081        -6.83679         6.50579
     2020.21355        -8.15004         7.04936
     2020.21629        -4.30629         6.80074
     2020.21902        -7.66955         6.66058
     2020.22176        -7.74480         6.48507
     2020.22450        -5.04805         6.47654
     2020.22724        -4.39130         6.46436
     2020.22997        -5.50455         6.49361
     2020.23271        -0.75381         6.48142
     2020.23492        -2.65639         8.34248
     2020.23819        -4.96231         6.45582
     2020.24093         1.77944         6.49604
     2020.24366         4.40019         6.50823
     2020.24640         4.78493         6.50823
     2020.24914        -7.41332         6.49239
     2020.25188       -10.20557         6.48386
     2020.25462        -6.23782         6.49117
     2020.25735        -1.88307         6.50336
     2020.26009         6.96167         6.50336
     2020.26283         0.00242         6.49117
     2020.26557        -6.71883         6.48751
     2020.26830        -5.65908         6.44851
     2020.27104        -5.22133         6.48995
     2020.27378        -5.93259         6.49726
     2020.27652        -2.04184         6.49239
     2020.27926        -2.45409         6.57283
     2020.28199        -4.91334         6.56673
     2020.28473        -9.72359         6.50457
     2020.28715        -5.58105         7.38818
     2020.29021        -2.02610         6.48507
     2020.29295        -5.54835         6.53626
     2020.29568         0.39640         6.50457
     2020.29842         1.26915         6.46436
     2020.30116         0.76190         6.49239
     2020.30283       -10.15804        15.20537
     2020.30663         3.45339         6.51067
     2020.30937         5.93414         6.79342
     2020.31211        -2.26511         6.65326
     2020.31485         5.68864         6.49482
     2020.31759         1.48838         6.37417
     2020.32018         5.59404         6.76174
     2020.32174        30.07004        77.69902
     2020.32580        -0.23137         6.46679
     2020.32740         2.85365        17.17490
     2020.33128        -5.21588         6.38148
     2020.33401        -2.14013         6.38879
     2020.33675         1.36362         6.40951
     2020.33949        -3.14663         6.41439
     2020.34223        -6.40888         6.55211
     2020.34434        -5.30653         8.73127
     2020.34770        -9.26839         6.39854
     2020.34934        -1.72234        15.59904
     2020.35318        -9.27589         6.54358
     2020.35592        -6.98114         6.59598
     2020.35865        -3.53140         6.42292
     2020.36139         0.68235         6.41317
     2020.36413         3.04710         6.41317
     2020.36687        10.45685         6.47776
     2020.36961         0.07460         6.51798
     2020.37234        -2.89466         6.37295
     2020.37432         1.27960         9.47715
     2020.37782         9.54784         6.31079
     2020.38056         4.65759         6.32907
     2020.38319         2.41427         6.56673
     2020.38603        -1.18192         6.34979
     2020.38877        -3.33517         6.51798
     2020.39151        -8.22542         6.42414
     2020.39425        -6.46667         6.33517
     2020.39698        -8.29092         6.33395
     2020.39972        -7.72718         6.37173
     2020.40246        -5.14843         6.35345
     2020.40520        -8.01668         6.49482
     2020.40794        -1.79793         6.54236
     2020.41067         0.86782         6.44486
     2020.41341         0.01056         6.33395
     2020.41615        -5.06869         6.39732
     2020.41889        -8.87094         6.39489
     2020.42162       -10.21219         6.38392
     2020.42436        -9.04844         6.60451
     2020.42710        -4.32170         6.63376
     2020.42984         3.86205         6.50092
     2020.43258         2.71280         6.46923
     2020.43531        -7.25645         6.47898
     2020.43805        -9.48470         6.49970
     2020.44079        -9.41196         6.53139
     2020.44353         4.95079         6.69227
     2020.44626        -3.37546         6.40098
     2020.44900        -2.71371         6.38879
     2020.45174         2.13404         6.36198
     2020.45448         0.01578         6.34004
     2020.45722         4.70453         6.31079
     2020.45995         8.02028         6.35223
     2020.46269        -4.99897         6.38514
     2020.46543        -4.07922         6.36198
     2020.46817        -5.61148         6.39123
     2020.47091        -3.44573         6.32663
     2020.47364        -7.45198         6.33395
     2020.47638        -2.78223         6.35588
     2020.47912        -2.26748         6.46923
     2020.48186         1.49527         6.36685
     2020.48459        -7.14999         6.44851
     2020.48733        -9.64524         6.71420
     2020.49007        -0.99549         6.52164
     2020.49281         3.19626         6.45948
     2020.49555         2.76101         6.44242
     2020.49828         0.73375         6.35832
     2020.53388        -1.48352         6.49970
     2020.53661        -3.68277         6.48142
     2020.53935        -4.18503         6.46192
     2020.54209        -8.74628         6.61670
     2020.54483        -2.75753         6.45217
     2020.54757         0.17622         6.49848
     2020.55030        -0.87003         6.51067
     2020.55304         0.22071         6.56186
     2020.55578         4.50246         6.54479
     2020.55852         5.24821         6.59598
     2020.56125         4.30296         6.45095
     2020.56399         0.71471         6.47776
     2020.56673        -0.84455         6.43510
     2020.56947         3.91720         6.47289
     2020.57221         2.36595         6.74833
     2020.57494        -1.91630         6.62401
     2020.57768        -1.78955         6.55820
     2020.58042        -4.19881         6.58623
     2020.58316        -0.96406         6.54967
     2020.58590        -1.61531         6.57404
     2020.58863        -3.11856         6.60208
     2020.59137        -2.02281         6.50945
     2020.59411         9.58993         6.57283
     2020.59685        13.39368         6.96527
     2020.59958         0.41343         6.61792
     2020.60232        -2.91182         6.50701
     2020.60506         3.20493         6.50701
     2020.60780        -0.73533         6.45582
     2020.61054         6.22742         6.51920
     2020.61327         1.43317         6.50336
     2020.61601        -3.44408         6.48507
     2020.61875        -4.22133         6.51798
     2020.62149        -0.03359         6.54601
     2020.62423         4.49016         6.67033
     2020.62696        -9.22809         6.54479
     2020.62970        -1.82634         6.52529
     2020.63244        -0.34759         6.55820
     2020.63518         4.62015         6.61061
     2020.63791         1.00490         6.66789
     2020.64065        -1.38335         6.53383
     2020.64339        -1.24660         6.59233
     2020.64613        -3.23085         6.60086
     2020.64887        -2.96210         6.58501
     2020.65160         5.21364         6.54723
     2020.65434         0.77039         6.50214
     2020.65708        -0.24386         6.46557
     2020.65982        -0.43511         6.49726
     2020.66256         1.37264         6.52773
     2020.66529         2.61438         6.52408
     2020.66803         3.23413         6.49848
     2020.67077         3.42788         6.45582
     2020.67351        -0.65437         6.48020
     2020.67624         2.56338         6.49970
     2020.67898        -1.05188         6.55454
     2020.68172        -1.74113         6.52286
     2020.68446        -2.77338         6.61061
     2020.68720        -2.56163         6.55333
     2020.68993        -0.21888         6.52773
     2020.69267         0.22286         6.65205
     2020.69541        -0.36539         6.83730
     2020.69815        -0.24464         6.63620
     2020.70089        -0.43089         6.46314
     2020.70362        -1.24214         6.52529
     2020.70636        -2.93040         6.83852
     2020.70910        -4.29265         6.81292
     2020.71184         1.84810         6.63742
     2020.71457         3.55285         6.73370
     2020.71731        11.46260         6.70689
     2020.72005         2.79334         6.70811
     2020.72279         0.68809         6.56308
     2020.72553         3.86684         6.65814
     2020.72826         2.24759         6.65692
     2020.73100        13.27134         6.59476
     2020.73374         6.36908         6.57039
     2020.73648        15.25083         6.52529
     2020.73921         3.65958         6.52773
     2020.74195         3.46633         6.48507
     2020.74469         1.49708         6.52895
     2020.74743        -0.69818         6.58623
     2020.75017        -0.32343         6.52773
     2020.75290        -2.36768         6.55333
     2020.75564        -1.65293         6.45704
     2020.75838         3.08582         6.44729
     2020.76112         5.76956         6.52042
     2020.76386         3.26531         6.46801
     2020.76659         7.10206         6.38879
     2020.76933         7.98781         6.56795
     2020.77207         7.25956         6.44607
     2020.77481        17.03430         6.54601
     2020.77754        24.22505         6.56551
     2020.78028        13.86480         6.51189
     2020.78302        13.82455         6.45948
     2020.78576        20.24630         6.51311
     2020.78850         0.57904         6.52773
     2020.79123         0.37679         6.51554
     2020.79397         5.89054         6.50336
     2020.79671         3.85229         6.50457
     2020.79945        10.26704         6.47411
     2020.80219         3.26378         6.68008
     2020.80492        12.65153         6.50945
     2020.80766         2.08428         6.58623
     2020.81040         2.12103         6.57526
     2020.81314        14.55978         6.52651
     2020.81587         3.87652         6.49361
     2020.81861         4.57527         6.54114
     2020.82135         5.32802         6.56186
     2020.82409         5.77677         6.53139
     2020.82683         4.52152         6.57283
     2020.82956         6.30927         6.68495
     2020.83230        13.16901         6.65814
     2020.83504         5.82276         6.60208
     2020.83778         8.21051         6.43267
     2020.84052         9.72326         6.43510
     2020.84325         6.04001         6.71298
     2020.84599         8.79675         6.61305
     2020.84873        21.91850         6.54479
     2020.85147        12.43425         6.47411
     2020.85420        11.07000         6.39610
     2020.85694        15.05475         6.53870
     2020.85968        12.79249         6.50457
     2020.86242         9.18824         6.57526
     2020.86516        10.81499         6.68983
     2020.86789        20.05274         6.68983
     2020.87063        29.12049         6.48507
     2020.87337        22.96823         6.50945
     2020.87611        21.83098         6.64230
     2020.87885        10.60573         6.67520
     2020.88158        24.61048         6.64473
     2020.88432        10.05623         6.52651
     2020.88706         4.67197         6.77880
     2020.88980         3.99572         6.61061
     2020.89253         6.74247         6.53261
     2020.89527         9.85022         6.68617
     2020.89801         8.11797         6.72152
     2020.90075        13.30771         6.51798
     2020.90349         7.86446         6.49604
     2020.90622         3.44721         6.52895
     2020.90896         6.46796         6.74833
     2020.91170         5.37271         6.75077
     2020.91444         8.31145         6.61305
     2020.91718         1.39820         6.52286
     2020.91991        -0.92605         6.49726
     2020.92265         0.08370         6.54967
     2020.92539        -3.25255         6.51676
     2020.92813        -2.45781         6.47167
     2020.93086        -0.21106         6.47289
     2020.93360        -0.66531         6.52651
     2020.93634         0.83144         6.48020
     2020.93908        -0.19781         6.51920
     2020.94182        -1.60807         6.49361
     2020.94455        -0.20732         6.49970
     2020.94729        -5.02757         6.50457
     2020.95003        -1.11082         6.52895
     2020.95277        -6.24907         6.49726
     2020.95551         1.66967         6.52895
     2020.95824         4.42842         6.52042
     2020.96098        15.03917         6.49482
     2020.96372        -3.29708         6.51676
     2020.96646         2.07967         6.69836
     2020.96919        21.05941         6.56917
     2020.97193         4.70416         6.42657
     2020.97467         5.97291         6.55089
     2020.97741        -3.60334         6.60086
     2020.98015        -2.43359         6.74589
     2020.98288         3.59615         6.61183
     2020.98562         6.35590         6.44851
     2020.98836         5.29665         6.44120
     2020.99110         5.79040         6.44242
     2020.99384         1.27215         6.41317
     2020.99657         4.87290         6.42535
     2020.99931        12.61064         6.43267
     2021.00205         1.69639         6.43145
     2021.00479         7.05014         6.42901
     2021.00752        17.27989         6.42048
     2021.01026        17.82064         6.42901
     2021.01300         9.94238         6.42414
     2021.01574        10.01613         6.51189
     2021.01848        15.03588         6.42170
     2021.02121         0.23163         6.44120
     2021.02395         2.65738         6.41804
     2021.02669        -0.62188         6.42048
     2021.02943         2.17887         6.46557
     2021.03216        13.06362         6.45339
     2021.03490        14.66437         6.48142
     2021.03764        -2.78488         6.42779
     2021.04038         6.06986         6.47532
     2021.04312         3.20861         6.51311
     2021.04585         1.00436         6.54479
     2021.04859        -1.15689         6.47898
     2021.05133        -0.75214         6.51189
     2021.05407         0.56360         6.76661
     2021.05681         2.07635         6.64108
     2021.05954        -1.32390         6.47776
     2021.06228         2.24685         6.48507
     2021.06502         0.78760         6.47654
     2021.06776         7.49634         6.41439
     2021.07049         2.96409         6.47167
     2021.07323         5.11284         6.42170
     2021.07597        -4.68141         6.43023
     2021.07871         1.81234         6.45826
     2021.08145         0.01208         6.40707
     2021.08418        -3.53017         6.42292
     2021.08692        -3.19742         6.42048
     2021.08966         3.37533         6.43267
     2021.09240        -3.74792         6.44242
     2021.09514        -3.87918         6.63133
     2021.09787        -2.50243         6.62645
     2021.10061         5.24932         6.46557
     2021.10335         0.68307         6.44851
     2021.10609         0.23082         6.44973
     2021.10882        -2.03444         6.48386
     2021.11156        -6.12669         6.45704
     2021.11430        -3.15794         6.47289
     2021.11704        -0.11519         6.46801
     2021.11978        10.14756         6.47411
     2021.12251        -4.37170         6.46801
     2021.12525         1.00905         6.50457
     2021.12799        -4.16120         6.41682
     2021.13073        -5.42045         6.44973
     2021.13347        -0.88670         6.53992
     2021.13620         5.43004         6.50945
     2021.13894        -3.19321         6.44364
     2021.14168        -6.43646         6.42292
     2021.14442        -2.35471         6.43023
     2021.14715         6.15304         6.45948
     2021.14989       -10.86722         6.42048
     2021.15263        -5.71247         6.58867
     2021.15537        -2.61072         6.59233
     2021.15811         0.48303         6.73248
     2021.16084        -1.56822         6.56186
     2021.16358        -1.06348         6.53870
     2021.16632        -0.41773         6.58989
     2021.16906         2.63402         6.41804
     2021.17180        -0.94023         6.41682
     2021.17453        -6.90648         6.59476
     2021.17727        -4.08973         6.61792
     2021.18001        -4.26299         6.54723
     2021.18275        -6.03924         6.78489
     2021.18548        -6.46249         6.40951
     2021.18822        -0.13474         6.38879
     2021.19096         0.42001         6.38148
     2021.19370        -7.56325         6.50701
     2021.19644        -8.52150         6.42048
     2021.19917        -5.77175         6.43023
     2021.20191        -3.18300         6.38026
     2021.20465        -0.15825         6.36807
     2021.20739        -3.28151         6.41804
     2021.21013         1.03124         6.61061
     2021.21286        -7.12601         6.55211
     2021.21560        -1.92026         6.36563
     2021.21834        -2.58051         6.36685
     2021.22108        -3.01877         6.43023
     2021.22381        -6.52002         6.43632
     2021.22655        -1.35427         6.43389
     2021.22929         3.33548         6.39976
     2021.23203         1.95323         6.31932
     2021.23477        -3.71903         6.37660
     2021.23750        -5.72928         6.42657
     2021.24024        -3.58253         6.41195
     2021.24298        -3.56678         6.38757
     2021.24572        -5.89703         6.34979
     2021.24846        -1.91429         6.49726
     2021.25119        -1.06354         6.43998
     2021.25393        -2.88079         6.45582
     2021.25667        -1.39404         6.41317
     2021.25941        -0.59629         6.39976
     2021.26214         0.04545         6.34613
     2021.26488         1.23320         6.37904
     2021.26762         2.43495         6.58014
     2021.27036        -1.82430         6.49361
     2021.27310         5.22045         6.37417
     2021.27583        -3.51481         6.36076
     2021.27857        -4.30906         6.56308
     2021.28131        -0.14831         6.52042
     2021.28405        -3.04256         6.55820
     2021.28679         1.36319         6.53017
     2021.28952         2.81293         6.57892
     2021.29226         1.39368         6.55820
     2021.29500         2.90343         6.56308
     2021.29774         0.17318         6.74223
     2021.30047         1.72893         6.62280
     2021.30321         6.28367         6.57526
     2021.30595         5.74242         6.72761
     2021.30869        11.05117         6.69958
     2021.31143        10.99692         6.44607
     2021.31416         8.07667         6.48507
     2021.31690         2.89241         6.50701
     2021.31964         4.21816         6.61548
     2021.32238        -0.25509         6.62036
     2021.32512        -5.20934         6.45704
     2021.32785        -1.62459         6.50092
     2021.33059         9.11915         6.57648
     2021.33333         6.78990         6.49726
     2021.33607         2.24165         6.48264
     2021.33880         1.55940         6.48751
     2021.34154        -1.00085         6.46192
     2021.34428        -4.45110         6.70567
     2021.34702        -4.16136         6.51432
     2021.34976        -3.24561         6.49239
     2021.35249         0.20914         6.48386
     2021.35523         0.82989         6.49117
     2021.35797        -1.60136         6.50214
     2021.36071        -3.00662         6.53992
     2021.36344        -1.85087         6.54114
     2021.36618        -5.54812         6.49970
     2021.36892        -1.89737         6.50457
     2021.37166         0.12438         6.50457
     2021.37440         0.29612         6.55333
     2021.37713        -1.55813         6.59842
     2021.37987         1.20462         6.68617
     2021.38261         0.05037         6.90189
     2021.38535        -1.24288         6.71055
     2021.38809        12.31986         6.62280
     2021.39082        12.59661         6.58014
     2021.39356        -4.22564         6.51920
     2021.39630         8.30011         6.60330
     2021.39904        -1.45914         6.54723
     2021.40177        -2.60040         6.65936
     2021.40451         3.50335         6.69958
     2021.40725        -1.77790         6.54723
     2021.40999         1.32085         6.53626
     2021.41273        -3.88740         6.51554
     2021.41546        -3.72366         6.58501
     2021.41820        -4.10291         6.59964
     2021.42094         4.04084         6.60451
     2021.42368         2.39859         6.64230
     2021.42642        -1.07766         6.66545
     2021.42915         5.53508         6.62523
     2021.43189         6.25283         6.55333
     2021.43463         8.10058         6.53870
     2021.43737         9.11933         6.56673
     2021.44010         6.12108         6.62889
     2021.44284        -0.52418         6.59964
     2021.44558        11.52957         6.69958
     2021.44832        -0.53868         6.73248
     2021.45106         8.84607         6.92018
     2021.45379        15.85582         6.81536
     2021.45653         1.21456         6.68373
     2021.45927         4.04131         6.53017
     2021.46201         0.74906         6.57892
     2021.46475         1.07881         6.55454
     2021.46748         0.54156         6.61548
     2021.47022         8.65630         6.72517
     2021.47296        12.89305         6.93724
     2021.47570        -0.00120         6.68130
     2021.48117        -4.04470         6.62523
     2021.48391        -2.09296         6.51676
     2021.48665         0.91079         6.57283
     2021.48939        -6.04346         6.68252
     2021.49212         0.34929         6.67276
     2021.49486         2.41304         6.68739
     2021.49760         9.03978         6.97258
     2021.50034         1.90753         6.73005
     2021.50308         5.15828         6.67764
     2021.50581        -0.36097         6.60208
     2021.50855         3.17378         6.60330
     2021.51129         2.81452         6.55820
     2021.51403         5.82927         6.61183
     2021.51676         5.74402         6.59354
     2021.51950         2.95577         6.74955
     2021.52224        -1.06248         6.60208
     2021.52498         2.62027         6.55211
     2021.52772        -0.07999         6.54601
     2021.53045         5.77576         6.57039
     2021.53319         3.58951         6.61183
     2021.53593         3.19826         6.84583
     2021.53867         8.89401         7.03230
     2021.54141         5.43375         6.73370
     2021.54414         3.23750         6.81780
     2021.54688        -1.75275         6.69958
     2021.54962         3.91500         6.72761
     2021.55236         7.73575         6.65814
     2021.55509         4.44049         6.78367
     2021.55783        -0.05376         6.70445
     2021.56057         1.42399         6.58745
     2021.56331         6.94474         6.58623
     2021.56605         5.04449         6.53383
     2021.56878        11.57423         6.84949
     2021.57152         2.72498         6.70080
     2021.57426         0.25473         6.63376
     2021.57700         5.50448         6.86289
     2021.57974         1.73623         6.50092
     2021.58247        -6.36603         6.64108
     2021.58521         3.61872         6.93480
     2021.58795         3.70647         6.60330
     2021.59069        -1.80278         6.66301
     2021.59616         4.62771         6.70202
     2021.59890         2.65146         6.60086
     2021.60164         0.17621         6.66423
     2021.60438         2.84696         6.56551
     2021.60711         4.00971         6.59842
     2021.60985         2.26445         6.52408
     2021.61259         5.01020         6.59233
     2021.61533        -1.44205         6.55089
     2021.61807         3.08670         6.50092
     2021.62080         4.99545         6.54358
     2021.62354         1.49119         6.56551
     2021.62628         6.36794         6.68130
     2021.62902         7.67569         6.51676
     2021.63175         7.29744         6.52042
     2021.63449         5.21019         6.46801
     2021.63723         8.10093         6.85558
     2021.63997         8.17468         6.61670
     2021.64271         9.87743         6.66667
     2021.64544         2.42018         6.53017
     2021.64818         1.85293         6.46801
     2021.65092         5.13667         6.48995
     2021.65366         2.05242         6.55820
     2021.65639         2.07317         6.50945
     2021.65913         1.79892         6.51920
     2021.66187         1.15067         6.52529
     2021.66461         9.01041         6.46679
     2021.66735         6.15716         6.43510
     2021.67008         2.38091         6.61426
     2021.67282         6.29466         6.74833
     2021.67556         3.56741         6.84096
     2021.67830         2.69815         6.68983
     2021.68104         4.72790         6.44607
     2021.68377         7.68765         6.53870
     2021.68651         8.86340         6.66667
     2021.68925         9.94815         6.53261
     2021.69199        13.81790         6.57039
     2021.69472        12.32264         6.52773
     2021.69746         4.49239         6.51920
     2021.70020        13.75914         6.56673
     2021.70294         6.08489         6.51189
     2021.70568         7.94764         6.52529
     2021.70841         6.36038         6.48995
     2021.71115         8.41413         6.50701
     2021.71389        18.36988         6.73005
     2021.71663        20.07063         6.62523
     2021.71937         7.36238         6.52895
     2021.72210         1.11412         6.50092
     2021.72484         2.70887         6.53870
     2021.72758         9.55062         6.53504
     2021.73032        -2.61063         6.85802
     2021.73305         6.61012         6.53017
     2021.73579         9.68686         6.55211
     2021.73853        16.77161         6.56429
     2021.74127        20.57436         6.49848
     2021.74401        13.99411         6.52042
     2021.74674         8.85586         6.56186
     2021.74948         6.35460         6.61548
     2021.75222         9.90835         6.54723
     2021.75496         7.92010         6.52773
     2021.75770         5.21885         6.56673
     2021.76043         8.23960         6.56551
     2021.76317        10.93634         6.67764
     2021.76591         7.65609         6.56551
     2021.76865        11.27184         6.53261
     2021.77138         9.20659         6.49482
     2021.77412        17.54034         6.56308
     2021.77686        10.71608         6.57648
     2021.77960        14.47383         6.56673
     2021.78234        12.84758         6.52651
     2021.78507        12.68733         6.47898
     2021.78781        11.40308         6.53992
     2021.79055         9.83582         6.54845
     2021.79329        10.67857         6.56186
     2021.79603        19.21932         6.53139
     2021.79876        16.75807         6.46557
     2021.80150        17.88382         6.70080
     2021.80424        10.07556         6.73127
     2021.80698        19.79531         6.53626
     2021.80971        19.30506         6.50701
     2021.81245        30.44881         6.70811
     2021.81519        18.86956         6.46557
     2021.81793        24.71530         6.52286
     2021.82067        12.79305         6.68008
     2021.82340        21.70080         6.65326
     2021.82614        13.80755         6.62645
     2021.82888        24.46230         6.57039
     2021.83162        16.45304         6.59598
     2021.83436        21.18879         6.59842
     2021.83709        13.20654         6.62645
     2021.83983         2.73929         6.66911
     2021.84257        20.47104         6.89214
     2021.84531        20.92578         6.59842
     2021.84804        14.62453         6.61061
     2021.85078         9.87628         6.61548
     2021.85352         5.37803         6.55576
     2021.85626        19.89378         6.54601
     2021.85900        11.85552         6.49726
     2021.86173        22.04227         6.55211
     2021.86447         5.81902         6.70811
     2021.86721        11.55177         6.80317
     2021.86995         5.06452         6.79830
     2021.87269         7.62927         6.65570
     2021.87542         9.93101         6.65570
     2021.87816         0.01676         6.53139
     2021.88090         2.18251         6.52529
     2021.88364        18.57526         6.54358
     2021.88637        -0.19999         6.49482
     2021.88911        -2.13925         6.46436
     2021.89185        -1.86550         6.49361
     2021.89459         8.08725         6.60086
     2021.89733         0.71400         6.50092
     2021.90006        -3.53025         6.48751
     2021.90280         4.92249         6.52164
     2021.90554         4.34724         6.49361
     2021.90828        13.80499         6.53870
     2021.91102         4.79674         6.53383
     2021.91375         5.12149         6.53383
     2021.91649         2.75923         6.52529
     2021.91923        12.39898         6.63742
     2021.92197        -3.14627         6.91286
     2021.92470        -3.41052         6.66301
     2021.92744         3.63623         6.73614
     2021.93018         4.84097         6.69958
     2021.93292        18.58072         6.85680
     2021.93566        26.47547         6.78855
     2021.93839         9.94222         6.79464
     2021.94113         9.23297         6.93968
     2021.94387        15.06271         6.71420
     2021.94661         5.88346         6.68130
     2021.94935         8.46221         6.64230
     2021.95208        16.80996         6.62158
     2021.95482         6.41471         6.79952
     2021.95756        11.54245         6.82999
     2021.96030         4.21220         6.83121
     2021.96303         3.53295         6.77758
     2021.96577        16.64170         6.77758
     2021.96851         8.38645         6.80317
     2021.97125         5.67219         6.84461
     2021.97399         9.31794         6.86411
     2021.97672        15.23769         6.80195
     2021.97946        18.70644         6.76905
     2021.98220        15.74419         6.76295
     2021.98494        10.54993         6.77392
     2021.98767         6.62068         6.76539
     2021.99041         7.79843         6.69592
     2021.99315         6.56718         6.61548
     2021.99589         5.52693         6.63864
     2021.99863        -8.83433         6.63376
     2022.00136        -5.02958         6.67033
     2022.00410         4.03717         6.74589
     2022.00684        -4.31108         6.72152
     2022.00958         7.07867         6.70080
     2022.01232         0.10541         6.76539
     2022.01505        25.42816         6.78611
     2022.01779        12.88691         6.75564
     2022.02053         3.34066         6.71908
     2022.02327        -2.58259         7.08227
     2022.02600        -7.65185         6.71786
     2022.02874        -4.07810         6.71177
     2022.03148       -11.68035         6.72639
     2022.03422        -2.58060         6.70567
     2022.03696        -6.71085         6.63376
     2022.03969       -12.74710         6.64351
     2022.04243        -3.03936         6.64595
     2022.04517        -2.76261         6.63376
     2022.04791        -0.54086         6.64961
     2022.05065         1.24089         6.63376
     2022.05338         4.23364         6.58989
     2022.05612       -10.65062         6.66058
     2022.05886        -8.40687         6.64595
     2022.06160        -8.32812         6.68130
     2022.06433        -1.59037         6.68008
     2022.06707        -6.52662         6.63620
     2022.06981        -1.07088         6.64108
     2022.07255       -10.52013         6.54723
     2022.07529        -5.30038         6.57526
     2022.07802        -1.25963         6.56795
     2022.08076         4.82712         6.54236
     2022.08350         7.51186         6.57770
     2022.08624         2.11861         6.53261
     2022.08898        -1.46164         6.53383
     2022.09171        -2.08389         6.57283
     2022.09445        -5.70714         6.53261
     2022.09719        -4.65440         6.48386
     2022.09993        -6.29865         6.67764
     2022.10266        -7.27390         6.70202
     2022.10540        -3.63415         6.63255
     2022.10814         0.89460         6.66180
     2022.11088        -2.15066         6.49239
     2022.11362        -1.08091         6.48873
     2022.11635         1.95884         6.48751
     2022.11909        -0.93641         6.55089
     2022.12183         6.21734         6.60939
     2022.12457         6.96808         6.67520
     2022.12731        -1.44317         6.49726
     2022.13004        -8.20942         6.49604
     2022.13278        -4.54967         6.52651
     2022.13552        -1.28492         6.53992
     2022.13826         7.39882         6.52773
     2022.14099        -1.94043         6.47776
     2022.14373        -8.46268         6.49117
     2022.14647        -0.45093         6.48264
     2022.14921         0.39182         6.84217
     2022.15195        -2.53344         6.82999
     2022.15468        -1.71069         6.50579
     2022.15742         6.16306         6.53139
     2022.16016         9.77481         6.54114
     2022.16290         4.90556         6.52895
     2022.16564         7.59930         6.55576
     2022.16837         7.93805         6.53992
     2022.17111         4.00480         6.49482
     2022.17385        -0.47245         6.53748
     2022.17659        -0.90670         6.49970
     2022.17932        -6.36196         6.51920
     2022.18206        -4.58521         6.53261
     2022.18480         0.51754         6.51920
     2022.18754        -0.92271         6.60086
     2022.19028        -3.35096         6.63133
     2022.19301         2.27878         6.53748
     2022.19575        14.51753         6.55576
     2022.19849        -0.27372         6.54601
     2022.20123        11.00803         6.53626
     2022.20397         5.28578         6.54358
     2022.20670        -0.28148         6.68130
     2022.20944         2.75427         6.65448
     2022.21218         7.16002         6.56186
     2022.21492        -1.55323         6.52773
     2022.21765         0.25652         6.55211
     2022.22039        -0.25173         6.50457
     2022.22313        -2.64099         6.53748
     2022.22587         2.93976         6.62645
     2022.22861         3.52451         6.63498
     2022.23134         3.90026         6.57161
     2022.23408         5.26301         6.56673
     2022.23956        11.19550         6.55454
     2022.24230        11.34725         6.55211
     2022.24503         6.39000         6.61183
     2022.24777         8.49675         6.59354
     2022.25051         0.14049         6.52164
     2022.25325         4.58824         6.55454
     2022.25598        16.46899         6.65570
     2022.25872         5.57674         6.70445
     2022.26146        -1.66951         6.62401
     2022.26420         2.28923         6.62645
     2022.26694         0.11498         6.74589
     2022.26967         3.23273         6.59476
     2022.27241         7.57148         6.58745
     2022.27515         8.45423         6.79464
     2022.27789         1.30397         6.61548
     2022.28062         0.27272         6.60330
     2022.28336         4.65247         6.67033
     2022.28610         4.60022         6.76295
     2022.28884        -5.42503         6.67642
     2022.29158        -1.11329         6.55820
     2022.29431        -0.08254         6.52529
     2022.29705         5.97021         6.55333
     2022.29979         4.97296         6.54845
     2022.30253         8.59571         6.66545
     2022.30527         3.27145         6.63742
     2022.30800         0.30620         6.56429
     2022.31074        -0.26005         6.55576
     2022.31348        -0.69230         6.58745
     2022.31622        -2.79655         6.53992
     2022.31895       -17.36581         6.74955
     2022.32169         0.46694         6.72639
     2022.32443         2.47069         6.53017
     2022.32717         9.46244         6.56551
     2022.32991        -1.25981         6.57404
     2022.33264        -5.70507         6.74467
     2022.33538        -2.73632         6.76417
     2022.33812        -2.44357         6.74833
     2022.34086         5.90918         6.56551
     2022.34360        13.38393         6.68617
     2022.34633         9.22167         6.56917
     2022.34907         0.04242         6.55089
     2022.35181         3.31817         6.50457
     2022.35455        -1.81008         6.55089
     2022.35728        -1.72733         6.50823
     2022.36002         4.21541         6.51798
     2022.36276         7.25316         6.57161
     2022.36550        11.89591         6.56429
     2022.36824        -2.23834         6.55211
     2022.37097        -1.20759         6.51920
     2022.37371        -4.08285         6.48142
     2022.37645        -6.16710         6.56308
     2022.37919        -2.01535         6.73248
     2022.38193        -5.25860         6.64717
     2022.38466        -3.26685         6.50579
     2022.38740       -15.36310         6.51311
     2022.39014        -4.98336         6.51189
     2022.39288        -0.98161         6.55211
     2022.39561        -5.44186         6.52042
     2022.39835        -4.50911         6.52286
     2022.40109         5.47664         6.58867
     2022.40383        11.48538         6.52042
     2022.40657        13.67113         6.49970
     2022.40930        -5.51912         6.61670
     2022.41204         2.82763         6.59964
     2022.41478        -7.72362         6.49726
     2022.41752         1.02812         6.69958
     2022.42026         6.02687         6.68008
     2022.42299        13.36762         6.50214
     2022.42573        19.27037         6.76783
     2022.42847         3.65312         6.54601
     2022.43121         0.39186         6.59964
     2022.43394         4.56461         6.66180
     2022.43668        -5.80364         6.48751
     2022.43942        -0.89689         6.53992
     2022.44216        12.05286         6.56673
     2022.44490        19.23360         6.81780
     2022.44763        12.51335         6.43876
     2022.45037        -5.70390         6.50092
     2022.45311        -8.63615         6.48507
     2022.45585        -1.28240         6.52408
     2022.45859       -13.66766         6.50457
     2022.46132         6.88909         6.45704
     2022.46406        -0.22216         6.45095
     2022.46680        -1.27041         6.48386
     2022.46954        -2.88166         6.63498
     2022.47227       -13.62092         6.47411
     2022.47501         9.63283         6.50823
     2022.47775        -2.30142         6.64717
     2022.48049        -4.25067         6.44364
     2022.48323         4.85208         6.53504
     2022.48596         7.91782         6.57404
     2022.48870        -1.47043         6.58379
     2022.49144        -6.98068         6.57648
     2022.49418        -3.30993         6.62401
     2022.49692        -2.21018         6.53626
     2022.49965         4.20256         6.58379
     2022.50239        -3.74169         6.60573
     2022.50513         8.56206         7.03840
     2022.50787        13.56181         6.96039
     2022.51060         0.96756         6.72395
     2022.51334        -4.73070         6.63376
     2022.51608        -2.95395         6.55211
     2022.51882        -8.15220         6.62767
     2022.52156        -5.06445         6.62280
     2022.52429        -2.23570         6.48142
     2022.52703         1.21904         6.50214
     2022.52977         6.72279         6.64108
     2022.53251        -6.51146         6.68983
     2022.53525        -6.17171         6.78245
     2022.53798        -5.95896         6.55942
     2022.54072        -2.79322         6.53626
     2022.54346         1.75053         6.63742
     2022.54620        -4.08272         6.60573
     2022.54893         3.58203         6.62523
     2022.55167        -9.14022         6.75442
     2022.55441         1.01652         6.56429
     2022.55715         1.60227         6.57648
     2022.55989        -3.27098         6.57892
     2022.56262        -4.11323         6.57892
     2022.56536       -11.73748         6.58623
     2022.56810        -0.34373         6.59476
     2022.57084        -4.45099         6.59476
     2022.57357        -0.53624         6.76905
     2022.57631        -6.54449         6.58014
     2022.57905        -6.38874         6.59476
     2022.58179         6.24001         6.66423
     2022.58453        -1.36925         7.02377
     2022.58726        -8.89650         6.70202
     2022.59000         4.60325         6.73736
     2022.59274        -8.15200         6.53870
     2022.59548        -0.35325         6.55942
     2022.59822       -15.86551         6.53626
     2022.60095        -8.66776         6.59964
     2022.60369         3.83799         6.83730
     2022.60643         7.84474         6.70080
     2022.60917        -1.39751         6.62158
     2022.61190         5.47523         6.63498
     2022.61464         5.07598         6.48142
     2022.61738         5.97773         6.51067
     2022.62012        -5.39252         6.50945
     2022.62286        -1.28577         6.45704
     2022.62559         3.43697         6.54601
     2022.62833         0.11672         6.45095
     2022.63107         1.70647         6.56795
     2022.63381         5.37922         6.48995
     2022.63655        -0.29903         6.50823
     2022.63928        11.35271         6.53626
     2022.64202         5.60246         7.00061
     2022.64476         5.34321         6.95552
     2022.64750         4.75596         6.61792
     2022.65023         6.97871         6.68861
     2022.65297        15.59045         6.67276
     2022.65571         6.06520         6.63742
     2022.65845         7.58895         6.47776
     2022.66119         7.52470         6.36807
     2022.66392         9.00945         6.55211
     2022.66666         8.20919         6.48995
     2022.66940        11.27694         6.47167
     2022.67214         4.02469         6.50579
     2022.67488         3.78844         6.43267
     2022.67761        16.98519         6.42414
     2022.68035         8.61693         6.53626
     2022.68309         9.56068         6.55333
     2022.68583         6.92643         6.73980
     2022.68856         9.46118         6.57404
     2022.69130         9.70993         6.48020
     2022.69404         7.65467         6.51189
     2022.69678        10.28542         6.61305
     2022.69952         2.18017         6.61914
     2022.70225        16.78592         6.74102
     2022.70499        14.77667         6.70445
     2022.70773        10.65941         6.50945
     2022.71047        12.76416         6.41804
     2022.71321        27.32791         6.48995
     2022.71594        12.39966         6.47045
     2022.71868        11.28941         6.40464
     2022.72142        20.23515         6.36563
     2022.72416        16.31690         6.53504
     2022.72689        13.02665         6.53992
     2022.72963         9.38640         6.37782
     2022.73237         6.62915         6.39489
     2022.73511         7.07790         6.39854
     2022.73785         8.24464         6.46070
     2022.74058        19.65639         6.76052
     2022.74332        18.16914         6.68983
     2022.74606        22.60989         6.51676
     2022.74880        10.34264         6.42779
