# ================= DQRFIT RESULTS ================
# INPUT FILE: series/TAHB.rad
# OUTPUT: LDETRENDED
# FILTER FUNCTION: f(t)
# f(t)=+line(t)+annual(t)
# line(t)=+P 1+P 2*t
# annual(t)=+P 3*sin(2*pi*t+P 4)
# heav(t)=(t<0?0:1)
# TOTAL OBSERVATIONS MTOT= 1204
# INITIAL TIME INTERVAL= 2022.7488 - 2019.4497 =  3.2991
# TOTAL OBSERVATIONS AFTER PREFILTER M= 1183
# TIME-SPAN= 2022.7488 - 2019.4497 =  3.2991
# OBSERVATIONS: USED M=  1183 REJECTED MTOT-M=    21 %USED=   98.2558
# N=  4 PARAMETERS
# MAXSIG= 175.00000
# MAXRES=  17.23655
# SCALE FACTOR FOR LENGTHS: SCL=  10.00000
# SCALE FACTOR FOR SIGMAS: SCLSIG=   1.00000
# CHI^2=   1446.586 DOF=  1179 CHI^2/DOF=   1.22696
# RMS=      6.191 SDEV=      6.193 MEAN=    0.01295
#  P #       PARAMETER +-    SIGMA %error PARAMETER NAME
# P 1 =     -6083.50856 +-  383.978   6.31 YZERO                              
# P 2 =         3.01978 +-    0.190   6.29 SLOPE                              
# P 3 =         4.85157 +-    0.257   5.31 ANNUAL AMPLITUDE                   
# P 4 =         2.86746 +-    0.072   2.52 ANNUAL PHASE                       
#       T            LDETRENDED       SIG_OBS
     2019.44969        -2.59083         6.25730
     2019.45243        -1.81410         6.18862
     2019.45516        -5.49137         6.23293
     2019.45790        -2.20664         6.18419
     2019.46064         4.31909         6.33262
     2019.46338        -3.93317         6.48105
     2019.46611        -1.59444         6.52646
     2019.46885         0.41529         6.41680
     2019.47159         2.42702         6.20081
     2019.47433         4.38676         6.22850
     2019.47707        -1.86951         6.19527
     2019.47980        -2.01478         6.19527
     2019.48254        -2.40805         6.25287
     2019.48525         2.22777         6.33151
     2019.48805         1.33032         6.26837
     2019.49076         0.89415         6.08007
     2019.49349        -0.49612         6.06456
     2019.49623        -1.31739         6.13213
     2019.49897        -4.39665         6.07121
     2019.50171         0.72708         6.06678
     2019.50444         1.99081         6.08561
     2019.50718         2.41354         6.08450
     2019.50992         4.00928         6.09447
     2019.51266        -3.09199         6.13988
     2019.51540         5.13174         6.10333
     2019.51813        -1.49153         6.10776
     2019.52087         5.16521         6.24179
     2019.52361         1.90394         6.12881
     2019.52635        -7.34333         6.16868
     2019.52908         7.46940         6.43342
     2019.53182        -0.12787         6.19970
     2019.53456        -6.98713         6.23736
     2019.53730         1.71760         6.27724
     2019.54004         8.10133         6.31157
     2019.54277        -1.53894         6.22850
     2019.54551         0.19380         6.36696
     2019.54825        -0.43447         6.06456
     2019.55099        -2.65674         6.10444
     2019.55373         1.75699         6.33373
     2019.55646         7.27373         6.23404
     2019.55920        -7.93254         6.35367
     2019.56194         2.61719         6.21078
     2019.56468        -3.96108         6.22517
     2019.56741         4.14265         6.23182
     2019.57015        -5.98161         6.02579
     2019.57289        -5.61588         6.22407
     2019.57563         7.10785         6.15318
     2019.57837         9.99158         6.24954
     2019.58110        10.57332         6.18308
     2019.58384         4.18205         6.52757
     2019.58658         2.99378         6.05459
     2019.58932         3.02251         6.09225
     2019.59206         1.52225         6.17201
     2019.59479        -4.58802         6.09447
     2019.59753        -0.03429         6.35256
     2019.60027         7.16944         6.26284
     2019.60301        -2.29283         6.07342
     2019.60574        -1.69509         6.32597
     2019.60848        -0.89036         6.33484
     2019.61122         5.15637         6.13434
     2019.61396         5.53410         6.34259
     2019.61670         3.79384         6.08893
     2019.61943         0.68057         6.08561
     2019.62217         2.30030         6.37139
     2019.62491         4.69103         6.15318
     2019.62765        10.39577         6.12216
     2019.63039         7.01650         6.11108
     2019.63312        -0.96477         6.16979
     2019.63586         7.75696         6.47330
     2019.63860         3.98769         6.14431
     2019.64134        -6.91957         6.40683
     2019.64407         6.01916         6.09004
     2019.64681         0.05589         6.08893
     2019.64955        -1.78638         6.08228
     2019.65229         4.74136         6.14099
     2019.65503        -3.06991         6.27059
     2019.65776        -3.27718         6.16979
     2019.66050         3.26255         6.18973
     2019.66324         9.32329         6.33373
     2019.66598         5.44702         6.16536
     2019.66872         2.87775         6.12659
     2019.67145        -5.61252         6.14431
     2019.67419         2.80021         6.09447
     2019.67693        -2.85005         6.18751
     2019.67967        -8.63732         6.25730
     2019.68240        -0.47459         6.14653
     2019.68514        -2.50786         6.06013
     2019.68788         5.68388         6.13988
     2019.69062         6.05861         6.14210
     2019.69336         4.63934         6.07675
     2019.69609        16.06007         6.34148
     2019.69883         8.81081         6.21964
     2019.70157        10.33154         6.46111
     2019.70431         3.87727         6.07010
     2019.70705        -0.95000         6.02801
     2019.70978        -4.45327         6.11884
     2019.71252        -6.73053         5.99256
     2019.71526         0.43020         6.11108
     2019.71800        -1.35507         6.31933
     2019.72073         2.65766         6.38579
     2019.72347         4.67040         6.15096
     2019.72621        -2.82587         6.15982
     2019.72895         4.18686         6.05902
     2019.73169         3.64359         6.10222
     2019.73442        12.00233         6.18419
     2019.73716         1.65706         6.07785
     2019.73990         5.16979         6.27724
     2019.74264        -3.63848         6.14099
     2019.74538        -5.04075         6.05570
     2019.74811        -1.86101         6.22850
     2019.75085         1.18672         6.20967
     2019.75359         4.47745         6.30382
     2019.75633         1.40918         6.18973
     2019.75906        -1.79508         6.02247
     2019.76180        -0.28735         6.10222
     2019.76454         4.88138         6.25176
     2019.76728        -2.96389         6.10222
     2019.77002         2.26785         6.09336
     2019.77275        -4.40142         6.57742
     2019.77549        -2.39169         6.21964
     2019.77823        -2.01396         6.12438
     2019.78097         3.87477         6.07010
     2019.78371        -0.73549         6.05681
     2019.78644        -1.09076         6.14321
     2019.78918        17.75297         6.18419
     2019.79192        15.63670         6.29496
     2019.79466        11.55344         6.15871
     2019.79739         9.03817         6.08118
     2019.80013        12.70490         6.14653
     2019.80287        10.65763         6.13878
     2019.80561         6.33537         6.15096
     2019.80835        -1.99390         6.13767
     2019.81108         6.44083         6.25287
     2019.81382         8.94056         6.30271
     2019.81656         4.05229         6.07675
     2019.81930        -2.80997         6.07453
     2019.82203         0.82576         6.11441
     2019.82477        -5.15251         6.07564
     2019.82751        -3.12278         6.09558
     2019.83025         0.46596         6.20413
     2019.83299         2.96369         6.20856
     2019.83572        -1.13858         6.07231
     2019.83846         0.60215         6.13434
     2019.84120         0.13489         6.06235
     2019.84394         5.31362         6.28167
     2019.84668        -6.67965         6.05127
     2019.84941        -2.07192         6.09668
     2019.85215         3.62481         6.20081
     2019.85489         2.28655         6.14099
     2019.85763         3.57828         6.06013
     2019.86036         1.82701         6.11219
     2019.86310         1.18074         6.19527
     2019.86584        11.04848         6.17533
     2019.86858         0.88721         6.18087
     2019.87132        10.39294         6.20413
     2019.87405        11.78467         6.08007
     2019.87679         1.27041         6.31268
     2019.87953        14.69214         6.16979
     2019.88227         5.97287         6.07453
     2019.88501        10.16060         6.17422
     2019.88774         6.02833         6.30825
     2019.89048         3.94607         6.18087
     2019.89322        15.40280         6.12659
     2019.89596         4.24953         6.18419
     2019.89869        10.96126         6.04795
     2019.90143         4.11900         6.04905
     2019.90417        -0.22127         6.12327
     2019.90691         7.57446         6.11108
     2019.90965        -1.28881         6.09004
     2019.91238         1.05593         6.06345
     2019.91512         6.14766         6.11995
     2019.91786        12.16939         6.13324
     2019.92060        12.17212         6.11441
     2019.92334         9.26085         6.21299
     2019.92607         1.11759         6.13545
     2019.92881         7.60432         6.17422
     2019.93155        12.53805         6.15539
     2019.93429         7.08378         6.13324
     2019.93702         5.45152         6.14985
     2019.93976         8.91625         6.20191
     2019.94250        11.15498         6.16536
     2019.94524         4.87771         6.14985
     2019.94798         0.46445         6.16758
     2019.95071         5.56118         6.45114
     2019.95345         6.90991         6.11884
     2019.95619         8.44464         6.17644
     2019.95893         2.98537         6.16868
     2019.96167        11.95111         6.19748
     2019.96440         9.89584         6.34591
     2019.96714         7.85657         6.30714
     2019.96988        -1.84170         6.21742
     2019.97262        -5.38796         6.18530
     2019.97535        -2.39023         6.11662
     2019.97809        -6.08350         6.13102
     2019.98083        -2.80777         6.09779
     2019.98357        -7.07004         6.14431
     2019.98631         4.26270         6.18530
     2019.98904         4.96443         6.13434
     2019.99178        14.18916         6.21410
     2019.99452         9.91489         6.11884
     2020.00000        17.07836         6.12659
     2020.00273        -3.14391         6.03133
     2020.00547         6.18782         6.30271
     2020.00821        -3.68144         6.27502
     2020.01095        -6.16671         6.21299
     2020.01368        -4.77298         6.19194
     2020.01642         3.63075         6.25508
     2020.01916        -1.77952         6.13767
     2020.02190        -4.87378         6.17976
     2020.02464       -19.99105         6.21964
     2020.02737       -10.65932         6.06456
     2020.04928         5.07354         5.98370
     2020.05201        -4.66773         6.07785
     2020.05475        -8.59600         5.97927
     2020.05749         0.12774         6.01915
     2020.06023         1.51047         6.02579
     2020.06297         3.67020         6.04573
     2020.06570         6.56393         6.02358
     2020.06844         0.34167         6.04905
     2020.07118         3.66840         6.01804
     2020.07392         1.15213         5.99810
     2020.07666         1.09686         6.04130
     2020.07939         3.24060         6.03355
     2020.08213         2.68533         6.03355
     2020.08487        -3.99694         6.06345
     2020.08761       -18.00321         5.98592
     2020.09034         2.90352         5.96930
     2020.09308       -22.02674         6.02912
     2020.09582         8.10199         6.01250
     2020.09856         6.43872         6.02358
     2020.10130        -0.71755         6.05902
     2020.10403        -3.66381         6.03465
     2020.10677        -2.18408         6.03908
     2020.10951        -2.21335         6.02468
     2020.11225        10.48438         6.05238
     2020.11498         3.34912         6.00696
     2020.11772       -12.56315         6.20081
     2020.12046       -11.15742         6.18973
     2020.12320       -10.79769         6.00253
     2020.12594        -6.81896         5.97262
     2020.12867        -6.03122         6.03022
     2020.13141        -5.20949         6.00142
     2020.13415        -7.11576         6.03576
     2020.13689        -5.01203         6.11330
     2020.13963         0.94771         6.09336
     2020.14236         3.09744         6.03465
     2020.14510       -18.53083         6.08782
     2020.14784       -11.11410         6.02690
     2020.15058        -3.60136         6.03908
     2020.15331         1.69837         6.05681
     2020.15605        -0.91890         5.99810
     2020.15879        -7.00817         5.98592
     2020.16153        -5.15644         6.08118
     2020.16427         0.42230         6.00807
     2020.16700        -7.36997         6.12438
     2020.16974         3.74476         6.09668
     2020.17248        -0.16151         6.03465
     2020.17796        -9.29504         6.06788
     2020.18069       -19.25031         6.01139
     2020.18343        -3.81358         5.99810
     2020.18617        -4.98284         6.05681
     2020.19164        -3.59838         6.00364
     2020.19438        -6.10765         6.07564
     2020.19712        -5.54392         6.08893
     2020.19986        -7.41718         6.06456
     2020.20260        -9.86745         6.01693
     2020.20533        -4.84672         6.02468
     2020.20807        -5.18899         6.08118
     2020.21081        -7.23925         6.08782
     2020.21355        -1.85152         6.69594
     2020.21629        -3.45979         6.41127
     2020.21902        -7.20006         6.13656
     2020.22176        -3.50032         6.07453
     2020.22450       -14.92059         6.11219
     2020.22724        -7.03186         6.13545
     2020.22997        -6.12413         6.04573
     2020.23271         0.63760         6.05570
     2020.23545         2.76534         6.15318
     2020.23819         4.01207         6.08450
     2020.24093        -1.16620         6.11219
     2020.24366       -29.38047         6.13878
     2020.24640       -23.26573         6.17311
     2020.24914        -7.86900         6.02912
     2020.25188        -3.71127         6.13767
     2020.25462        -3.49054         6.17090
     2020.25735        -4.39980         6.08007
     2020.26009         2.39293         6.05570
     2020.26283        -2.79534         6.02579
     2020.26557       -11.91561         6.05016
     2020.26830        -4.91388         6.07231
     2020.27104        -6.09814         6.11773
     2020.27378        -5.40641         6.06788
     2020.27652        -7.78468         6.03133
     2020.27926        -2.32995         6.14210
     2020.28199        -2.80821         6.21853
     2020.28473        -8.62548         6.12438
     2020.28747         1.06225         6.26062
     2020.29021        -3.43802         6.06013
     2020.29295        -2.64928         6.10111
     2020.29568        -2.62655         6.03908
     2020.29842         2.19418         6.08228
     2020.30116         3.67291         6.06788
     2020.30390         3.60964         6.10001
     2020.30663         4.93538         6.12438
     2020.30937         1.52311         6.22517
     2020.31211        -6.29716         6.26173
     2020.31485         1.77757         6.19416
     2020.31759        -0.08869         6.05459
     2020.32032         5.82804         6.04795
     2020.32306         2.71677         6.06345
     2020.32580        -0.89750         6.09447
     2020.32854         4.24224         6.04795
     2020.33128         8.26797         6.03908
     2020.33401        -2.07630         6.04351
     2020.33675        12.56243         6.10887
     2020.33949         9.19416         6.06788
     2020.34223        -3.30010         6.25287
     2020.34496        -0.60637         6.08450
     2020.34770        -7.79864         5.97705
     2020.35044        -5.17491         6.06899
     2020.35318        -2.28917         6.11219
     2020.35592        -3.32344         6.11995
     2020.35865         0.24329         6.01582
     2020.36139         3.87202         6.04130
     2020.36413         3.72676         5.97152
     2020.36687         2.06749         6.09779
     2020.36961         2.14722         6.11551
     2020.37234         1.69295         6.05016
     2020.37508         4.41468         6.05238
     2020.37782         5.63242         6.05681
     2020.38056        -6.91685         6.04462
     2020.38329        -3.84512         6.10998
     2020.38603        -0.93639         6.04905
     2020.38877        -3.01565         6.14874
     2020.39151        -3.12092         6.03687
     2020.39425        10.37281         6.08118
     2020.39698         2.18254         6.04241
     2020.39972        -0.67372         5.97705
     2020.40246         0.68301         6.01361
     2020.40520        -7.72726         6.23736
     2020.40794        -3.57153         6.09447
     2020.41067        -2.66980         6.02136
     2020.41341        -1.83906         6.02247
     2020.41615        -4.04233         6.03133
     2020.41889        -0.35460         6.05681
     2020.42162         0.26413         6.05016
     2020.42436        -1.93213         6.27059
     2020.42710        -7.89040         6.32708
     2020.42984         3.65733         6.10001
     2020.43258         2.80406         6.06124
     2020.43531        -2.83420         6.03465
     2020.43805         0.43153         6.05348
     2020.44079         7.44126         6.18419
     2020.44353         5.98899         6.24511
     2020.44626        -2.40028         6.14985
     2020.44900         4.78946         6.12548
     2020.45174         3.92319         6.12105
     2020.45448         2.70192         6.14210
     2020.45722         4.04165         6.17090
     2020.45995        -2.26961         6.13878
     2020.46269        -7.17988         6.11441
     2020.46543        -1.67715         6.13656
     2020.46817         9.17458         6.17644
     2020.47091         6.77132         6.15982
     2020.47364         0.54505         6.15096
     2020.47638        11.53178         6.23625
     2020.47912         7.83051         6.27613
     2020.48186        -2.02076         6.16868
     2020.48459        -8.52002         6.47440
     2020.48733        -4.16329         6.29717
     2020.49007        -1.41356         6.27834
     2020.49281        -0.59983         6.34591
     2020.49555        -1.52009         6.26948
     2020.49828        -0.14436         6.13102
     2020.50102        -3.41063         6.13988
     2020.50376        -1.80090         6.13988
     2020.50650        -3.19116         6.07010
     2020.50924        -7.36343         6.09779
     2020.51197        -4.21070         6.16758
     2020.51471        -2.61597         6.16204
     2020.51745         2.08176         6.15650
     2020.52019         4.44150         6.29496
     2020.52292         6.94023         6.11995
     2020.52566        -3.26004         6.14985
     2020.52840         2.91469         6.19194
     2020.53114        -2.33157         6.08118
     2020.53388        -1.59784         6.12548
     2020.53661        -1.12211         6.28499
     2020.53935         2.42962         6.34924
     2020.54209         6.09436         6.12659
     2020.54483         3.72409         6.13988
     2020.54757        -4.19918         6.10001
     2020.55030         2.18355         6.13434
     2020.55304         0.97828         6.22739
     2020.55578        -1.80198         6.16647
     2020.55852         5.86375         6.16758
     2020.56125        -0.28552         6.11884
     2020.56399        -1.60879         6.10776
     2020.56673        -1.30805         6.07342
     2020.56947        -7.73432         6.31711
     2020.57221         6.79041         6.75686
     2020.57494        -0.27586         6.29053
     2020.57768        -0.73612         6.27502
     2020.58042         1.23361         6.33373
     2020.58316        -9.19366         6.25176
     2020.58590        -1.80793         6.28942
     2020.58863         5.94480         6.40573
     2020.59137         1.05054         6.24290
     2020.59411         4.33327         6.25951
     2020.59685         6.82200         6.42013
     2020.59958         6.31073         6.44893
     2020.60232        -0.37753         6.28721
     2020.60506        -1.22380         6.30382
     2020.60780         8.16193         6.46443
     2020.61054         3.23266         6.22961
     2020.61327         5.32340         6.25841
     2020.61601        -1.81687         6.27391
     2020.61875        -4.12214         6.27281
     2020.62149        -0.17941         6.27834
     2020.62423         1.30332         6.33705
     2020.62696         0.32606         6.39465
     2020.62970         3.20279         6.34148
     2020.63244         7.41252         6.32376
     2020.63518        10.72625         6.38911
     2020.63791         8.82399         6.53311
     2020.64065         0.63072         6.25287
     2020.64339         0.61745         6.27059
     2020.64613         3.09118         6.20413
     2020.64887        -3.09708         6.22850
     2020.65160         1.83565         6.20081
     2020.65434         1.74338         6.29607
     2020.65708         0.18811         6.37804
     2020.65982         1.19384         6.32708
     2020.66256         2.47758         6.22739
     2020.66529         5.17531         6.23957
     2020.66803         4.77804         6.30382
     2020.67077         4.66077         6.59403
     2020.67351         2.08251         6.28721
     2020.67624         3.42624         6.23404
     2020.67898        -0.75903         6.25508
     2020.68172         0.01270         6.49323
     2020.68446        -2.36356         6.30936
     2020.68720        -2.21183         6.24401
     2020.68993         0.02390         6.22517
     2020.69267         1.99563         6.29607
     2020.69541         1.10236         6.49656
     2020.69815         4.14910         6.33373
     2020.70089         4.48583         6.26837
     2020.70362        -0.12444         6.29385
     2020.70636        -1.47871         6.61176
     2020.70910         0.36403         6.54419
     2020.71184         0.86576         6.56634
     2020.71457         2.90649         6.44450
     2020.71731        -3.30978         6.43785
     2020.72005         0.12596         6.60289
     2020.72279        -2.40931         6.33262
     2020.72553         4.96842         6.38247
     2020.72826         8.46015         6.69926
     2020.73100        13.93888         6.41459
     2020.73374        12.75262         6.40240
     2020.73648         7.36635         6.30382
     2020.73921         1.56108         6.33151
     2020.74195         6.09081         6.26062
     2020.74469         4.28155         6.23404
     2020.74743        -1.54872         6.29939
     2020.75017         4.93201         6.23736
     2020.75290         1.42174         6.15650
     2020.75564        -1.93852         6.14985
     2020.75838         6.21021         6.26505
     2020.76112         6.73194         6.39465
     2020.76386         1.49867         6.22850
     2020.76659         2.29340         6.19859
     2020.76933        11.67314         6.29607
     2020.77207         3.34987         6.27724
     2020.77481        10.24360         6.22074
     2020.77754         8.68133         6.23293
     2020.78028         8.51307         6.21631
     2020.78302         3.69880         6.31379
     2020.78576         2.46453         6.28056
     2020.78850         3.71926         6.20413
     2020.79123        11.08100         6.56856
     2020.79397         2.43473         6.19638
     2020.79671         0.70646         6.33040
     2020.79945        -6.75481         6.23514
     2020.80219         1.46992         6.34924
     2020.80492         5.15466         6.20413
     2020.80766        -1.48661         6.21964
     2020.81040         1.64812         6.24290
     2020.81314        -2.93215         6.26062
     2020.81587        -4.24141         6.21521
     2020.81861        -0.23368         6.20745
     2020.82135         2.77505         6.19084
     2020.82409         5.67378         6.22628
     2020.82683         8.00752         6.35256
     2020.82956        -0.01075         6.41237
     2020.83230         0.22298         6.33484
     2020.83504        -0.36729         6.33594
     2020.83778         5.46544         6.42677
     2020.84052        10.97518         6.26284
     2020.84325         9.17491         6.46776
     2020.84599        -2.30336         6.58406
     2020.84873         1.84637         6.21742
     2020.85147        -1.33989         6.14542
     2020.85420         8.61884         6.14431
     2020.85694         9.99657         6.31379
     2020.85968        10.08530         6.23182
     2020.86242        10.43904         6.20191
     2020.86516         9.36977         6.47440
     2020.86789        14.22150         6.30604
     2020.87063        13.91023         6.20856
     2020.87337        16.56896         6.20081
     2020.87611        16.10770         6.37914
     2020.87885        13.65143         6.33040
     2020.88158        13.21816         6.30714
     2020.88432        14.41889         6.24179
     2020.88706        15.11263         6.44228
     2020.88980         6.58636         6.18862
     2020.89253         8.20309         6.27391
     2020.89527        12.87082         6.40794
     2020.89801        12.61456         6.39908
     2020.90075        14.34229         6.19194
     2020.90349        16.74802         6.18308
     2020.90622        14.27275         6.20634
     2020.90896        11.45748         6.38136
     2020.91170        12.62422         6.48216
     2020.91444        10.15895         6.32265
     2020.91718         2.53468         6.16314
     2020.91991        -0.62859         6.15650
     2020.92265        -5.73785         6.29939
     2020.92539         8.87288         6.27059
     2020.92813         6.95961         6.24179
     2020.93086         4.64834         6.23957
     2020.93360        10.08208         6.24068
     2020.93634         4.80181         6.22739
     2020.93908         2.06254         6.20856
     2020.94182         4.76827         6.19970
     2020.94455         5.38600         6.12216
     2020.94729        -1.76226         6.08118
     2020.95003         0.78647         6.15539
     2020.95277        -0.93380         6.16758
     2020.95551         3.70293         6.22407
     2020.95824         5.23067         6.17090
     2020.96098         2.70040         6.13878
     2020.96372         4.40913         6.14764
     2020.96646         3.93686         6.26284
     2020.96919         4.26860         6.26284
     2020.97193         2.14433         6.11884
     2020.97467        -3.84494         6.20524
     2020.97741        -4.20121         6.23071
     2020.98015        -8.09648         6.33927
     2020.98288         7.11226         6.41127
     2020.98562        11.61899         6.09004
     2020.98836        14.11372         6.11219
     2020.99110         0.42745         6.03022
     2020.99384         3.66419         6.06788
     2020.99657         3.63492         6.12216
     2020.99931         7.11565         6.03022
     2021.00205         5.01438         6.14874
     2021.00479        11.59111         6.05016
     2021.00752        11.26485         6.16868
     2021.01026        12.62058         6.23847
     2021.01300         5.23931         6.08561
     2021.01574         9.43104         6.19638
     2021.01848         3.64378         6.09004
     2021.02121        -9.07449         6.14210
     2021.02395         6.70824         6.11995
     2021.02669         6.32697         6.11662
     2021.02943         4.42171         6.12105
     2021.03216         6.55744         6.23071
     2021.03490       -11.65283         6.16979
     2021.03764        -0.77510         6.16314
     2021.04038         4.52163         6.11330
     2021.04312         2.07537         6.07896
     2021.04585         6.09310         6.14653
     2021.04859         1.19583         6.08782
     2021.05133        -3.39744         6.19748
     2021.05407        -2.04670         6.36031
     2021.05681         5.20203         6.24290
     2021.05954        -5.64724         6.06899
     2021.06228        -7.17751         6.08007
     2021.06502        -6.14677         6.14874
     2021.06776         1.89096         6.09890
     2021.07049         0.32669         6.10444
     2021.07323        -2.41058         6.04241
     2021.07597        -4.87985         6.17865
     2021.07871        -4.42511         6.18198
     2021.08145       -20.46338         6.16425
     2021.08418       -20.55265         6.15650
     2021.08692        -6.15892         6.10665
     2021.08966         3.15682         6.11551
     2021.09240       -12.63045         6.09225
     2021.09514        -1.35572         6.37360
     2021.09787        -0.18599         6.27613
     2021.10061        -4.39525         6.11441
     2021.10335        -7.46752         6.05681
     2021.10609        -8.24779         6.08671
     2021.10882        -3.85806         6.04573
     2021.11156       -10.35733         6.02025
     2021.11430        -8.27759         6.09668
     2021.11704        -7.50086         6.02358
     2021.11978        -8.07413         6.03244
     2021.12251       -10.16540         6.12216
     2021.12525        -0.86666         6.08228
     2021.12799        -2.39893         6.09558
     2021.13073        -7.71520         6.05459
     2021.13347        -4.84747         6.17090
     2021.14168         0.80173         6.09779
     2021.14442        -1.09254         6.09225
     2021.14715       -11.58981         6.03687
     2021.14989        -5.90207         6.03465
     2021.15811         5.37412         6.37582
     2021.16084         5.90586         6.20745
     2021.16358         3.97759         6.18530
     2021.16632         2.15732         6.23514
     2021.16906       -10.26395         6.13988
     2021.17180        -3.22521         6.10111
     2021.17453        -5.36148         6.32154
     2021.17727       -17.29275         6.28388
     2021.18001       -25.92502         6.20524
     2021.18275       -18.54729         6.34370
     2021.18548        -8.56255         6.06235
     2021.18822       -11.47182         6.02025
     2021.19096        -7.99109         6.04019
     2021.19370        -2.59636         6.09225
     2021.19644        -1.32062         6.03355
     2021.19917       -15.02589         6.09890
     2021.20191       -13.71816         6.05681
     2021.20465        -4.26943         6.09004
     2021.20739        -7.97969         6.08893
     2021.21013        -5.49496         6.14985
     2021.21286        -7.74123         6.16425
     2021.21560         2.26850         6.03798
     2021.21834       -21.40877         6.08339
     2021.22108        -6.82203         6.04130
     2021.22381        -9.37530         6.03022
     2021.22655         0.47143         6.05127
     2021.22929        -4.75884         5.98370
     2021.23203        -4.23710         5.98813
     2021.23477        -7.94337         6.05016
     2021.23750        -5.86164         6.08118
     2021.24024       -10.24891         6.04019
     2021.24298       -11.94017         5.97595
     2021.24572       -13.25844         5.98592
     2021.24846        -6.46871         6.18862
     2021.25119        -7.06398         6.00475
     2021.25393       -17.56825         6.05570
     2021.25667        -9.28751         6.04573
     2021.25941       -15.11378         6.00696
     2021.26214        -7.95705         6.00364
     2021.26488       -25.25332         6.11219
     2021.26762       -14.57558         6.19527
     2021.27036       -27.04385         6.29607
     2021.27310        -5.41012         6.09890
     2021.27583       -11.65739         6.16979
     2021.27857        -8.62465         6.27170
     2021.28131        -9.96792         6.17311
     2021.28405       -12.06519         6.18419
     2021.28679        -7.27646         6.13102
     2021.28952        -7.53373         6.14874
     2021.29226        -7.29599         6.17311
     2021.29500        -2.34426         6.18087
     2021.29774        -6.79853         6.31268
     2021.30047        -4.51580         6.14431
     2021.30321        -3.37006         6.19305
     2021.30595        -3.85733         6.43674
     2021.30869         4.78740         6.45557
     2021.31143         1.82513         6.15871
     2021.31416         0.61287         6.10665
     2021.31690         2.60660         6.13434
     2021.31964        -0.92767         6.32930
     2021.32238        -1.41994         6.44782
     2021.32512        -8.31021         6.25730
     2021.32785         1.82953         6.17422
     2021.33059         3.72026         6.15096
     2021.33333        -2.06301         6.13324
     2021.33607        -0.35628         6.14985
     2021.33880        -1.73754         6.17422
     2021.34154        -5.71281         6.23736
     2021.34428        -3.67908         6.35920
     2021.34702        -5.83735         6.20745
     2021.34976        -3.08161         6.18087
     2021.35249        -2.75488         6.14653
     2021.35523        -4.02115         6.16204
     2021.35797       -10.08942         6.20967
     2021.36071        -3.36769         6.13767
     2021.36344        -8.93295         6.15650
     2021.36618       -14.87522         6.11662
     2021.36892       -11.12249         6.23514
     2021.37166        -8.45276         6.13988
     2021.37440        -3.17802         6.35256
     2021.37713        -1.64629         6.18308
     2021.37987        -7.19056         6.27724
     2021.38261        -5.83983         6.57742
     2021.38535        -9.03809         6.36253
     2021.38809        -8.12436         6.37250
     2021.39082        -6.69563         6.22961
     2021.39356        -3.82090         6.18198
     2021.39630        -0.71617         6.17644
     2021.39904        -4.25743         6.10776
     2021.40177         5.15930         6.17754
     2021.40451        -4.51597         6.23957
     2021.40725        -5.26424         6.11773
     2021.40999        -1.14050         6.13102
     2021.41273         4.24823         6.12327
     2021.41546        -3.71404         6.18862
     2021.41820        -4.69831         6.27724
     2021.42094        -2.81057         6.16647
     2021.42368         7.68216         6.25065
     2021.42642        -0.97911         6.14542
     2021.42915         2.35262         6.17422
     2021.43189         4.55235         6.17201
     2021.43463        -0.89791         6.18973
     2021.43737        -2.97818         6.18641
     2021.44010        -1.10445         6.32376
     2021.44284       -11.58172         6.34813
     2021.44558        -5.13898         6.33594
     2021.44832        -5.60925         6.37471
     2021.45106        -0.82752         6.34148
     2021.45379         1.02921         6.40019
     2021.45653        -1.38905         6.40462
     2021.45927        -3.55332         6.19970
     2021.46201        -2.94059         6.12659
     2021.46475        -0.68486         6.24290
     2021.46748        -2.85213         6.18641
     2021.47022        -3.17639         6.39576
     2021.47296         2.57134         6.28277
     2021.47570        -8.19993         6.19748
     2021.47843       -14.53020         6.24733
     2021.48117        -7.24046         6.14985
     2021.48391        -3.86673         6.17533
     2021.48665       -15.25800         6.18641
     2021.48939        -2.06327         6.18973
     2021.49212        -0.30153         6.17311
     2021.49486        -3.36380         6.33484
     2021.49760         2.71793         6.52203
     2021.50034        -4.38834         6.37139
     2021.50308        -1.71161         6.22628
     2021.50581       -17.05487         6.12548
     2021.50855        -4.52014         6.19084
     2021.51129        -4.27241         6.25065
     2021.51403        -5.01668         6.24179
     2021.51676        -0.05294         6.16979
     2021.51950         1.41579         6.31379
     2021.52224         1.13152         6.18198
     2021.52498        -3.96975         6.17644
     2021.52772        -2.66401         6.21078
     2021.53045        -5.49228         6.19416
     2021.53319        -0.26055         6.23847
     2021.53593        -5.98582         6.32819
     2021.53867         4.12091         6.52314
     2021.54141         2.96565         6.35920
     2021.54414        -4.10162         6.29717
     2021.54688        -4.65789         6.24733
     2021.54962        -1.77416         6.21521
     2021.55236         0.05758         6.21631
     2021.55509         4.79431         6.33705
     2021.55783        -1.48996         6.31268
     2021.56057         1.96177         6.24954
     2021.56331         1.27851         6.25951
     2021.56605         2.07324         6.26394
     2021.56878        -0.70203         6.21299
     2021.57152        -5.97230         6.16758
     2021.57426        -3.57557         6.22185
     2021.57700         1.65517         6.34259
     2021.57974        -8.72210         6.28942
     2021.58247       -11.00837         6.25287
     2021.58521        -5.03364         6.24733
     2021.58795        -9.38490         6.30936
     2021.59069        -1.59317         6.29164
     2021.59342         0.43356         6.50985
     2021.59616        -3.55771         6.37250
     2021.59890        -3.24997         6.30714
     2021.60164         1.73776         6.21188
     2021.60438        -0.51851         6.17311
     2021.60711         2.48122         6.33705
     2021.60985         0.16995         6.16979
     2021.61259        -3.92531         6.17090
     2021.61533        -6.80058         6.19194
     2021.61807        -4.77685         6.11773
     2021.62080         4.57588         6.66271
     2021.62354         2.48862         6.22185
     2021.62628        -0.43965         6.20524
     2021.62902         4.89208         6.29496
     2021.63175        -1.62419         6.39243
     2021.63449        -1.09545         6.19084
     2021.63723         0.10428         6.45225
     2021.63997        -0.91499         6.23736
     2021.64271        -6.85026         6.27391
     2021.64544        -5.31753         6.11330
     2021.64818        -2.82179         6.16314
     2021.65092         4.67094         6.21853
     2021.65366        -4.22333         6.15207
     2021.65639        -4.27160         6.16536
     2021.65913         1.80514         6.07010
     2021.66187        -1.74013         6.23847
     2021.66461        -2.06940         6.14431
     2021.66735         3.41033         6.14321
     2021.67008        -2.23293         6.25619
     2021.67282         1.46380         6.47108
     2021.67556        13.40253         6.64056
     2021.67830         5.01426         6.32597
     2021.68104        -0.14901         6.19970
     2021.68377         2.84473         6.27059
     2021.68651         0.73846         6.26394
     2021.68925        13.08419         6.52536
     2021.69199         2.38992         6.16536
     2021.69472        -1.36434         6.28610
     2021.69746         2.40839         6.18641
     2021.70020         4.36212         6.23957
     2021.70294         1.14685         6.18087
     2021.70568        12.73659         6.16536
     2021.70841         4.08332         6.13656
     2021.71115         5.80605         6.30604
     2021.71389         8.41578         6.36364
     2021.71663         2.53651         6.22961
     2021.71937         5.69125         6.18751
     2021.72210         0.23498         6.22407
     2021.72484        -1.46129         6.23182
     2021.72758        -1.09956         6.22296
     2021.73032       -10.74082         6.62948
     2021.73305        -0.15609         6.25065
     2021.73579         5.85364         6.35256
     2021.73853        16.22537         6.51760
     2021.74127         5.66011         6.22850
     2021.74401         9.79384         6.31933
     2021.74674        -0.94743         6.80671
     2021.74948        -3.38670         6.19748
     2021.75222         5.60903         6.23736
     2021.75496         3.26377         6.16647
     2021.75770        -3.26750         6.15207
     2021.76043         4.25223         6.21853
     2021.76317         2.50296         6.21188
     2021.76591         1.93770         6.16425
     2021.76865         3.59243         6.17090
     2021.77138         4.96216         6.20745
     2021.77412         6.12589         6.29939
     2021.77686         7.19863         6.28610
     2021.77960        10.91936         6.31490
     2021.78234         3.78009         6.14985
     2021.78507        16.21782         6.22517
     2021.78781        13.05055         6.25287
     2021.79055        17.06729         6.48880
     2021.79329         4.80502         6.18419
     2021.79603         8.27175         6.17865
     2021.79876         6.53948         6.21742
     2021.80150         3.95122         6.29717
     2021.80424        -3.50205         6.29828
     2021.80698         4.44968         6.32154
     2021.80971         9.28441         6.24511
     2021.81245         7.95715         6.42899
     2021.81519         0.52288         6.25730
     2021.81793        16.62261         6.21631
     2021.82067         7.17834         6.28388
     2021.82340         8.96607         6.13213
     2021.82614         4.09181         6.17201
     2021.82888         8.67154         6.19638
     2021.83162         8.89027         6.15428
     2021.83436         6.98400         6.22185
     2021.83709        11.16274         6.22407
     2021.83983         9.13347         6.23736
     2021.84257         2.94920         6.29828
     2021.84531        -9.61107         6.28610
     2021.84804         7.02667         6.19416
     2021.85078        -3.65960         6.27059
     2021.85352       -16.09687         6.21299
     2021.85626       -18.52314         6.26062
     2021.85900         3.03259         6.22517
     2021.86173         2.65833         6.20856
     2021.86447         7.14206         6.60954
     2021.86721         1.69379         6.47219
     2021.86995        15.04852         6.49877
     2021.87269         6.36926         6.32819
     2021.87542       -11.83801         6.34480
     2021.87816         0.46972         6.16647
     2021.88090         2.80945         6.19084
     2021.88364         0.66519         6.11441
     2021.88637         1.01092         6.20524
     2021.88911         3.97065         6.24401
     2021.89185         1.34438         6.31933
     2021.89459         9.19011         6.17311
     2021.89733         4.22085         6.19859
     2021.90006         2.27858         6.28831
     2021.90280         2.46931         6.23293
     2021.90554         6.08504         6.15871
     2021.90828        13.56778         6.16204
     2021.91102        11.36351         6.20856
     2021.91375         6.24424         6.23182
     2021.91649         9.73797         6.27391
     2021.91923         3.16071         6.19638
     2021.92197        -4.57056         6.33816
     2021.92470        -3.21483         6.18419
     2021.92744        -1.63110         6.26062
     2021.93018        -6.87837         6.23514
     2021.93292        10.88837         6.29828
     2021.93566         9.05310         6.32819
     2021.93839        -8.47717         6.23293
     2021.94113        -1.19244         6.42013
     2021.94387         8.79530         6.16868
     2021.95756        -1.54204         6.15761
     2021.96030        -1.20431         6.15871
     2021.96303       -13.02158         6.19527
     2021.96577         1.56715         6.01804
     2021.96851         3.61789         6.09668
     2021.97125         3.49162         6.13324
     2021.97399         4.08435         6.17865
     2021.97672       -12.71992         6.10776
     2021.97946       -10.18918         6.06235
     2021.98220        -7.39445         6.06013
     2021.98494         9.58428         6.15982
     2021.98767         6.53201         6.12438
     2021.99041         0.00975         6.14431
     2021.99315         1.12148         6.06567
     2021.99589         9.09621         6.01250
     2021.99863         6.69394         6.14431
     2022.00136        -0.87833         6.17090
     2022.00410         5.82141         6.23957
     2022.01779        -8.11493         6.25619
     2022.02053        -8.41020         6.18198
     2022.02327       -13.30747         6.48991
     2022.02600        -0.76473         6.20302
     2022.02874        -2.69000         6.26284
     2022.03148        -4.91927         6.19416
     2022.03422        -1.05454         6.21299
     2022.03696         0.72819         6.32708
     2022.03969        -4.76107         6.30714
     2022.04243         0.70366         6.41016
     2022.04517         4.88439         6.29496
     2022.04791         5.32712         6.26727
     2022.05065         1.26286         6.30271
     2022.05338         1.69259         6.30604
     2022.05612        -3.86768         6.31047
     2022.05886       -10.23995         6.27170
     2022.06160        -9.48522         6.30382
     2022.06433        -9.11948         6.25397
     2022.06707        -6.16075         6.28831
     2022.06981        -3.17102         6.22961
     2022.07255       -10.67329         6.16314
     2022.07529        -1.78555         6.12991
     2022.07802         4.45518         6.17865
     2022.08076         7.33191         6.21188
     2022.08350         0.96764         6.21631
     2022.08624         0.19738         6.20413
     2022.08898        -5.62789         6.18308
     2022.09171        -5.99316         6.20081
     2022.09445        -0.68743         6.20524
     2022.09719        -1.69770         6.22739
     2022.09993         1.96504         6.39022
     2022.10266        -3.13923         6.32708
     2022.10540         0.66950         6.32708
     2022.10814        10.94223         6.45668
     2022.11088         7.62197         6.27059
     2022.11362        -0.01930         6.21078
     2022.11635        -3.79757         6.14653
     2022.11909        -1.34784         6.16425
     2022.12183         4.24590         6.17533
     2022.12457        -3.39737         6.36142
     2022.12731        -3.39764         6.26616
     2022.13004        -3.84891         6.20745
     2022.13278        -3.50518         6.15428
     2022.13552         4.67456         6.23736
     2022.13826         5.45229         6.22296
     2022.14099         2.14902         6.23957
     2022.14373       -13.52125         6.25287
     2022.14647        -0.42951         6.20856
     2022.14921        -2.77278         6.40019
     2022.15195        -0.37805         6.42899
     2022.15468         1.91268         6.17976
     2022.15742         7.53742         6.27059
     2022.16016        11.96315         6.27502
     2022.16290         4.47788         6.19859
     2022.16564         5.03861         6.26505
     2022.16837         3.45634         6.31379
     2022.17111        -4.33792         6.21299
     2022.17385         2.48181         6.21299
     2022.17659         2.37054         6.23404
     2022.17932        -4.71073         6.20745
     2022.18206        -4.12699         6.22517
     2022.18480        -7.76126         6.16314
     2022.18754        -3.32353         6.29385
     2022.19028       -10.26480         6.29939
     2022.19301         4.87694         6.23182
     2022.19575         6.49867         6.18530
     2022.19849         9.93340         6.28721
     2022.20123         8.60313         6.23625
     2022.20397         8.30686         6.22961
     2022.20670         4.03660         6.39022
     2022.20944         9.12133         6.32930
     2022.21218         4.71806         6.23736
     2022.21492       -17.89121         6.27613
     2022.21765        -2.31347         6.23293
     2022.22039         2.99426         6.30382
     2022.22313         2.92099         6.27281
     2022.22587        -7.45928         6.26948
     2022.22861        -2.61854         6.32265
     2022.23134        -2.90981         6.22850
     2022.23408         3.55192         6.23514
     2022.23682        -2.98135         6.36142
     2022.23956        -6.02062         6.23293
     2022.24230        -2.95888         6.25841
     2022.24503        -0.13215         6.25508
     2022.24777         4.92858         6.27281
     2022.25051        -6.14869         6.26173
     2022.25325        -1.34795         6.27281
     2022.25598       -16.84722         6.30936
     2022.25872        -6.07949         6.30382
     2022.26420        -5.95102         6.19416
     2022.26694       -16.35129         6.38025
     2022.26967        -7.11756         6.17311
     2022.27241         0.67217         6.19416
     2022.27515        -0.51710         6.26505
     2022.27789        -2.15636         6.20081
     2022.28062        -8.82763         6.17201
     2022.28336        -4.12190         6.18862
     2022.28610        -4.94217         6.31268
     2022.28884        -7.68043         6.31379
     2022.29158        -6.63370         6.19416
     2022.29431        -4.29297         6.19084
     2022.29705         1.14376         6.19638
     2022.29979         0.30850         6.21631
     2022.30253         3.42523         6.24179
     2022.30527        -2.19804         6.26394
     2022.30800        -5.78631         6.24954
     2022.31074         0.96742         6.22185
     2022.31348        -1.74584         6.21964
     2022.31622       -14.06611         6.17090
     2022.31895       -19.70538         6.31600
     2022.32169        -3.30765         6.32154
     2022.32443        -7.10391         6.14321
     2022.32717        -5.90718         6.18751
     2022.32991        -3.13045         6.18973
     2022.33264        -8.10072         6.22185
     2022.33538        -6.84098         6.36031
     2022.33812        -4.67725         6.44450
     2022.34086        -1.58052         6.17201
     2022.34360        -1.01379         6.21742
     2022.34633        -3.47306         6.16314
     2022.34907        -3.88432         6.13988
     2022.35181        -4.70859         6.15096
     2022.35455        -7.39686         6.17533
     2022.35728        -1.21913         6.19084
     2022.36002       -11.24739         6.21853
     2022.36276        -7.38366         6.14874
     2022.36550        -4.62293         6.13213
     2022.36824         0.22580         6.19970
     2022.37097        -4.99746         6.15096
     2022.37371        -6.33773         6.13767
     2022.37645        -3.46100         6.15318
     2022.37919        -3.89227         6.36142
     2022.38193       -16.51954         6.32487
     2022.38466       -10.35580         6.12881
     2022.38740       -24.77507         6.18973
     2022.39014        -7.16034         6.18198
     2022.39288        -5.68061         6.23957
     2022.39561        -4.95287         6.17090
     2022.39835        -4.07314         6.31600
     2022.40109        -4.62241         6.28277
     2022.40383        -4.29968         6.20302
     2022.40657        -3.10794         6.16758
     2022.40930        -8.27921         6.29385
     2022.41204         2.49352         6.28167
     2022.41478        -0.90675         6.10776
     2022.41752         1.55698         6.30160
     2022.42026         0.11772         6.37028
     2022.42299        -0.13955         6.19970
     2022.42573        -7.98582         6.36364
     2022.42847        -2.23109         6.23736
     2022.43121        -1.32335         6.40794
     2022.43394         9.69038         6.46776
     2022.43668        -8.25089         6.26616
     2022.43942        -4.02416         6.26062
     2022.44216        -0.13642         6.24179
     2022.44490         7.12531         6.33262
     2022.44763         6.77204         6.16425
     2022.45037        -2.32523         6.12548
     2022.45311       -13.05150         6.15539
     2022.45585        -0.00876         6.17422
     2022.45859       -16.58303         6.22296
     2022.46132        -3.33930         6.20081
     2022.46406        -6.01057         6.15982
     2022.46680        -9.19583         6.14099
     2022.46954        -3.51910         6.17644
     2022.47227       -21.75337         6.14985
     2022.47501        -1.92764         6.13102
     2022.47775        -8.97890         6.30493
     2022.48049        -3.25117         6.12327
     2022.48323         2.53856         6.11330
     2022.48596        11.22129         6.16647
     2022.48870        -6.18798         6.18862
     2022.49144        -4.79724         6.20413
     2022.49418        -0.51151         6.35034
     2022.49692        -0.45178         6.17201
     2022.49965        -4.03305         6.24401
     2022.50239       -21.68231         6.18973
     2022.50513         0.55042         6.49213
     2022.50787        12.97215         6.50431
     2022.51060        -7.67512         6.32597
     2022.51334       -11.80638         6.15318
     2022.51608       -11.32365         6.12659
     2022.51882       -13.88592         6.17090
     2022.52156        -9.35519         6.19859
     2022.52429         2.41154         6.17865
     2022.52703         2.24128         6.24179
     2022.52977        10.54401         6.12991
     2022.53251        -9.19126         6.26505
     2022.53525        -2.33653         6.35810
     2022.53798        -2.07579         6.20856
     2022.54072        -5.30906         6.24401
     2022.54346        -2.49033         6.24068
     2022.54620        -4.06860         6.19859
     2022.54893         0.05914         6.17311
     2022.55167         1.64087         6.21631
     2022.55441         1.42460         6.26284
     2022.55715        12.32833         6.22628
     2022.55989         0.13406         6.19416
     2022.56262        -5.87020         6.19638
     2022.56536       -15.26147         6.16204
     2022.56810         0.97726         6.19638
     2022.57084         2.23799         6.23293
     2022.57357        17.00673         6.35920
     2022.57631        -2.29454         6.14653
     2022.57905        -2.99481         6.33594
     2022.58179         7.15592         6.21964
     2022.58453         6.05466         6.46997
     2022.58726        -9.40361         6.31379
     2022.59000        -1.86388         6.20856
     2022.59274        -6.93815         6.12659
     2022.59548        -1.41842         6.16314
     2022.59822        -6.50368         6.16647
     2022.60095       -10.66895         6.18862
     2022.60369        -6.12422         6.14653
     2022.60643         6.30351         6.24844
     2022.60917         7.40425         6.40019
     2022.61190         6.40998         6.25730
     2022.61464        13.08071         6.15871
     2022.61738         7.86544         6.12438
     2022.62012         0.72218         6.16758
     2022.62286         1.49591         6.04019
     2022.62559         1.46664         6.05348
     2022.62833         5.24637         6.11884
     2022.63107         9.03410         6.10555
     2022.63381        17.50184         6.16979
     2022.63655         8.25357         6.14985
     2022.63928         8.05130         6.08339
     2022.64202         2.33403         6.52093
     2022.64476         6.12977         6.41570
     2022.64750        10.34950         6.06788
     2022.65023         9.24923         6.11773
     2022.65297         2.59296         6.15761
     2022.65571         8.49370         6.00032
     2022.65845        14.29843         6.16093
     2022.66119         8.83416         6.06788
     2022.66392        10.35589         6.15428
     2022.66666         8.42362         6.11330
     2022.66940         8.20236         6.02358
     2022.67214        13.39809         6.19970
     2022.67488        15.13382         6.14542
     2022.67761        18.47555         6.26505
     2022.68035         9.47929         6.11773
     2022.68309        10.09602         6.07564
     2022.68583         4.01575         6.27502
     2022.68856         5.76748         6.11884
     2022.69130         8.34022         6.13545
     2022.69404         5.67795         6.28277
     2022.69678         5.02468         6.21521
     2022.69952         1.91741         6.15207
     2022.70225        12.29914         6.26394
     2022.70499         2.66488         6.29717
     2022.70773         8.54861         6.22628
     2022.71047         6.29934         6.10001
     2022.71321        11.96707         6.01028
     2022.71594        11.14881         5.98924
     2022.71868         5.46954         6.00032
     2022.72142        14.37727         6.00918
     2022.72416         3.08300         6.08782
     2022.72689        10.42174         6.24844
     2022.72963        10.50347         6.02912
     2022.73237         4.50220         6.04795
     2022.73511         7.99793         6.11884
     2022.73785         8.71266         6.03908
     2022.74058        16.55540         6.35810
     2022.74332        11.86413         6.26062
     2022.74606        10.97286         6.08893
     2022.74880         7.59059         5.96598
