# ================= DQRFIT RESULTS ================
# INPUT FILE: series/TAY1.rad
# OUTPUT: LDETRENDED
# FILTER FUNCTION: f(t)
# f(t)=+line(t)+annual(t)
# line(t)=+P 1+P 2*t
# annual(t)=+P 3*sin(2*pi*t+P 4)
# heav(t)=(t<0?0:1)
# TOTAL OBSERVATIONS MTOT= 1668
# INITIAL TIME INTERVAL= 2011.6030 - 2006.6010 =  5.0021
# TOTAL OBSERVATIONS AFTER PREFILTER M= 1666
# TIME-SPAN= 2011.6030 - 2006.6010 =  5.0021
# OBSERVATIONS: USED M=  1666 REJECTED MTOT-M=     2 %USED=   99.8801
# N=  4 PARAMETERS
# MAXSIG= 175.00000
# MAXRES=  33.77061
# SCALE FACTOR FOR LENGTHS: SCL=  10.00000
# SCALE FACTOR FOR SIGMAS: SCLSIG=   1.00000
# CHI^2=   1868.170 DOF=  1662 CHI^2/DOF=   1.12405
# RMS=      6.962 SDEV=      6.964 MEAN=   -0.01900
#  P #       PARAMETER +-    SIGMA %error PARAMETER NAME
# P 1 =      1183.64272 +-  231.228  19.54 YZERO                              
# P 2 =        -0.58793 +-    0.115  19.57 SLOPE                              
# P 3 =         2.15276 +-    0.233  10.82 ANNUAL AMPLITUDE                   
# P 4 =         3.12832 +-    0.153   4.89 ANNUAL PHASE                       
#       T            LDETRENDED       SIG_OBS
     2006.60095         2.83115         6.52454
     2006.60369         0.38576         6.61042
     2006.60643         6.79537         6.34855
     2006.60917        -0.98502         6.50440
     2006.61190         2.22159         6.61042
     2006.61464         7.18420         6.49380
     2006.61738         2.88281         6.47153
     2006.62012        -1.16359         6.69418
     2006.62286         5.45902         6.45033
     2006.62559         6.98663         6.58392
     2006.75975         3.30751         6.69100
     2006.76249         1.61612         6.62420
     2006.76522         7.71973         6.68994
     2006.76796        -2.61666         6.73659
     2006.77070         7.65795         6.53939
     2006.77344         1.03556         6.56483
     2006.77618         4.80517         6.66767
     2006.77891         9.06478         6.49910
     2006.78165         5.69239         6.47365
     2006.78439         1.88400         6.44503
     2006.78713         1.45060         6.78748
     2006.78987         8.29821         6.58180
     2006.79260        -1.34718         6.53197
     2006.79534         0.40543         6.46623
     2006.79808         3.12004         6.49168
     2006.80082        -1.69835         6.93803
     2006.80355        -1.58174         6.45245
     2006.80629        -2.35513         6.59876
     2006.80903         4.68348         6.38672
     2006.81177        -4.44991         6.72174
     2006.81451        -7.60230         6.92743
     2006.81724         5.28531         6.68888
     2006.81998        -3.01508         6.51500
     2006.82272        -4.59847         6.64223
     2006.82546         2.12014         6.56059
     2006.82820         1.88275         6.67828
     2006.83093        -4.50164         6.63269
     2006.83367         4.34797         6.56377
     2006.83641         3.46058         6.57331
     2006.83915         7.77619         6.88714
     2006.84188        -6.65020         6.79702
     2006.84462        -2.51859         6.72492
     2006.84736        -2.80698         6.66343
     2006.85010         3.61463         6.61148
     2006.85284         8.07224         6.81186
     2006.85557         7.77585         6.73553
     2006.85831         2.53946         6.85215
     2006.86105         2.41007         6.86699
     2006.86379        -7.12532         7.06207
     2006.86653         8.36129         6.96241
     2006.86926         0.89889         6.55635
     2006.87200         1.30150         6.81292
     2006.87474        11.15011         6.73977
     2006.87748         5.57672         6.76309
     2006.88021         0.73533         6.58180
     2006.88295        -2.01106         6.62314
     2006.88569        10.10255         6.85745
     2006.88843        -7.07784         6.87654
     2006.89117       -10.57723         6.68570
     2006.89390       -11.94362         6.78324
     2006.89664        -5.23501         6.76521
     2006.89938        -4.24740         6.55317
     2006.90212        -3.45479         6.60830
     2006.90485         8.93882         6.65707
     2006.90759         7.29843         6.44503
     2006.91033         0.48104         6.40898
     2006.91295         5.09058         6.64329
     2006.91581         0.41326         6.44079
     2006.91854        -9.48013         6.61784
     2006.92128        -4.20152         6.43867
     2006.92402        -6.47691         6.48956
     2006.92676        -1.24130         6.37505
     2006.92950        -3.80069         6.62739
     2006.93223        -2.52208         6.44185
     2006.93497        -1.76047         6.82246
     2006.93771         7.15614         6.59134
     2006.94045         8.13075         6.48532
     2006.94318         7.21136         6.57119
     2006.94592         2.88597         6.69206
     2006.94866        -4.77542         6.69418
     2006.95140         5.48918         6.55423
     2006.95414         7.32179         7.12781
     2006.95687         0.58940         6.70160
     2006.95961         2.38501         6.56907
     2006.96235        -1.33138         6.62527
     2006.96509         2.62223         6.75885
     2006.96783        -0.24016         6.78430
     2006.97056         2.31045         6.81504
     2006.97330        -2.14994         6.65495
     2006.97604        -2.03233         6.57862
     2006.97878         2.38828         6.69948
     2006.98151         8.39189         6.62845
     2006.98425         0.19250         6.84049
     2006.98699         3.72611         6.86275
     2006.98973        -7.66028         6.68676
     2006.99794       -12.68445         6.77263
     2007.00342        -0.32023         6.75143
     2007.00616       -10.78662         6.95393
     2007.00889         5.92199         6.97620
     2007.01163        -1.08540         6.61254
     2007.01437         4.77121         6.57968
     2007.01711       -11.75418         6.43761
     2007.01984       -14.68457         6.97514
     2007.02258        -2.44796         6.74295
     2007.02504         5.65048         7.86783
     2007.05544       -11.88065         6.28918
     2007.05817        -9.84304         6.28176
     2007.06091        -4.34643         6.35385
     2007.06365        -7.90682         6.32629
     2007.06639        -6.33621         6.54575
     2007.06913       -10.97760         6.28494
     2007.07186       -13.24799         6.23935
     2007.07460        -7.81638         6.47578
     2007.07734        -6.96977         6.37930
     2007.08008        -5.59016         6.49804
     2007.08282       -13.20555         6.38990
     2007.08555       -16.57594         6.54681
     2007.08829        -6.15133         6.27964
     2007.09103         2.71228         6.39414
     2007.09377        -3.59411         6.71114
     2007.09650        -6.51150         6.67297
     2007.09924        -5.66689         6.43973
     2007.10198        -6.62928         6.38990
     2007.10472        -9.01467         6.70690
     2007.10746         1.45794         6.63693
     2007.11019         4.29655         6.55105
     2007.11293        -0.41884         6.56695
     2007.11567         1.31777         6.40898
     2007.11841        -2.77063         6.42595
     2007.12115        -0.68902         6.36021
     2007.12388        -0.03041         6.52136
     2007.12662        -3.63880         6.73023
     2007.12936        -1.67119         6.69206
     2007.13210        -5.58758         6.74189
     2007.13466        -0.02907         6.93697
     2007.13757        12.36064         6.49062
     2007.14031         4.09125         6.55529
     2007.14305         0.07686         6.48214
     2007.14579         4.59147         6.33053
     2007.14852         4.11008         6.42913
     2007.15126        -0.42831         6.51712
     2007.15400         8.60130         6.44291
     2007.15674        13.85991         6.69524
     2007.15948        11.49652         6.51500
     2007.16221         3.61713         6.78642
     2007.16495         8.59874         6.72068
     2007.16769         4.08635         6.65707
     2007.17043         1.41996         6.66343
     2007.17316         4.51957         6.53515
     2007.17590         0.85018         6.86275
     2007.17864         8.88979         6.61360
     2007.18138         5.09340         6.66873
     2007.18412         4.40301         6.65919
     2007.18685         7.51062         6.48002
     2007.18959        -3.97577         6.62951
     2007.19233        -7.70316         6.73447
     2007.19507        -3.26855         6.69948
     2007.19780         1.43706         6.50228
     2007.20054         2.70366         6.57331
     2007.20328        -9.34473         6.53197
     2007.20602        -0.77912         6.41640
     2007.20876         3.62249         6.59664
     2007.21149         1.30410         6.57437
     2007.21423        -1.88629         6.58074
     2007.21697         0.00732         6.45457
     2007.21971         1.96193         6.85427
     2007.22245         0.38854         6.69736
     2007.22518         6.06615         6.56165
     2007.22792         8.23576         6.77369
     2007.23066         7.49837         6.56801
     2007.23340         2.24798         6.70478
     2007.23613        -6.80841         6.85851
     2007.23887        -7.50180         6.63375
     2007.24161         0.67281         6.87017
     2007.24435         6.52742         6.78960
     2007.24709         4.76203         6.62951
     2007.24982        -5.24936         6.60936
     2007.25256       -11.94975         6.54363
     2007.25530        -7.72114         6.63799
     2007.25804         0.45747         6.75143
     2007.26078         7.03508         6.83201
     2007.26351         3.56669         6.63375
     2007.26625         4.79030         6.47471
     2007.26899         7.98191         6.71644
     2007.27173        -4.92748         6.83095
     2007.27446         7.51613         6.57650
     2007.27720         6.21074         6.64011
     2007.27994         2.52635         6.71750
     2007.28268         4.96395         6.84685
     2007.28542         4.94756         6.67828
     2007.31559        -2.81970         6.83095
     2007.31827        -5.49512         6.82352
     2007.32101         2.16049         7.00482
     2007.32375         3.85610         6.76627
     2007.32648        -0.61329         6.55105
     2007.32922        -9.01068         6.73447
     2007.33196         0.33393         7.00164
     2007.33470        -4.26846         6.90940
     2007.33744         1.55015         6.80656
     2007.34017       -12.35924         6.88184
     2007.34291       -13.88063         6.55317
     2007.34565        -8.96302         6.80974
     2007.34839        -0.33041         6.66661
     2007.35112         5.26220         6.99316
     2007.35386        -0.25819         7.64837
     2007.35660        -7.31858         7.16067
     2007.35934        -5.20797         6.71538
     2007.36208         4.54864         6.83943
     2007.36481        -2.21776         6.89350
     2007.36755        -4.69915         6.74401
     2007.37029        -2.01054         6.81080
     2007.37303        -6.52593         6.80868
     2007.37577         2.29968         6.91682
     2007.37850        -7.14771         7.06313
     2007.38124        -9.52010         6.80762
     2007.38398       -13.35149         7.03345
     2007.38672         6.98312         6.77900
     2007.38945        -7.98727         6.70266
     2007.39219        -2.66766         6.83201
     2007.39493        -2.90005         6.89774
     2007.39767        -6.77344         6.84155
     2007.40041        -3.65483         6.67828
     2007.40314        -1.10622         6.80762
     2007.40588        -8.42961         7.08540
     2007.40856        -1.24203         7.01648
     2007.41136       -14.35739         6.80126
     2007.41410       -14.53978         6.89244
     2007.41683       -12.81717         7.13311
     2007.41957         0.86044         6.75037
     2007.42231        -8.51795         7.14583
     2007.42505        -3.19334         6.94545
     2007.42778         1.67027         6.66237
     2007.43052        -5.72312         6.81186
     2007.43326        -2.16651         6.71538
     2007.43600        -3.69690         6.78960
     2007.43874        -3.27329         6.91894
     2007.44147         0.30632         6.90728
     2007.44421        -9.84007         7.08964
     2007.44695        -5.82547         6.87760
     2007.44969       -11.00886         6.65283
     2007.45243        -9.46825         6.92424
     2007.45516        -9.34964         7.03451
     2007.45790         0.94697         6.57225
     2007.46064       -12.73742         6.83307
     2007.46338        -2.32881         6.68464
     2007.46611         0.47480         6.99528
     2007.46885        15.50741         6.76521
     2007.47159         3.55802         6.81928
     2007.47433         2.58663         6.69418
     2007.47707         0.11824         6.77263
     2007.47980       -10.02415         6.80232
     2007.48254       -10.52654         6.89456
     2007.48528         0.29207         6.70372
     2007.48802        -3.63332         6.85851
     2007.49076         2.63829         6.73341
     2007.49349       -10.44310         6.68040
     2007.49623        -3.28449         6.84367
     2007.49897        -1.72388         6.79596
     2007.50171        -4.57427         6.75885
     2007.50444        -6.93566         6.70584
     2007.50718         3.63995         6.80762
     2007.50992        -5.01744         6.80232
     2007.51266        -4.61283         6.72492
     2007.51540        -0.54522         6.70160
     2007.51813        -9.50161         6.74083
     2007.52087       -10.87600         6.72386
     2007.52350        -6.73346         7.18930
     2007.52635       -10.37178         6.76945
     2007.52908        -0.25618         6.80550
     2007.53182        -8.37457         6.64435
     2007.53456        -5.25396         7.20414
     2007.53730        -7.85135         6.77475
     2007.54004        -8.14174         6.92106
     2007.54277        -0.63713         6.80338
     2007.54551        -3.82052         6.80974
     2007.54825         3.81909         6.99316
     2007.55099        -3.25430         6.76097
     2007.55373        -0.02769         6.65601
     2007.55646         3.01092         6.67191
     2007.55920         3.98453         6.92531
     2007.56194        -0.92986         6.69100
     2007.56468         3.24375         6.78430
     2007.56741        -4.95764         6.64117
     2007.57015        -2.48303         6.69100
     2007.57289         1.45558         6.80126
     2007.57563         4.81219         6.82352
     2007.57837        -4.65520         6.76627
     2007.58110        -4.68459         6.64011
     2007.58384         0.81902         6.55317
     2007.58658         0.33863         7.12887
     2007.58932         0.19424         6.82989
     2007.59206        11.46185         6.67509
     2007.59479         0.48646         6.84579
     2007.59753        -6.11093         6.73871
     2007.60027        -0.53232         6.66343
     2007.60301        -4.28371         6.75779
     2007.60574         2.85790         6.82989
     2007.60848         4.10751         6.57437
     2007.61122        -2.45788         6.44821
     2007.61396        -6.10228         6.60936
     2007.61670         2.27733         7.05041
     2007.61943         1.82394         6.92955
     2007.62217        10.13955         7.08010
     2007.62491        -1.38784         6.88078
     2007.62765         4.78077         6.99422
     2007.63039        11.15838         6.88926
     2007.63312         4.29599         6.82352
     2007.63586         0.95760         6.65495
     2007.63860        -9.90379         6.76627
     2007.64134         4.56582         6.68570
     2007.64407         1.35143         6.87760
     2007.64681         4.34904         6.89350
     2007.64955         8.95765         7.03027
     2007.65229         1.00026         6.99634
     2007.65503        -6.50313         7.01012
     2007.65776        -2.94452         7.36105
     2007.66050         1.73709         6.83943
     2007.66324        -6.29030         6.87866
     2007.66598         4.68431         6.81822
     2007.66872        -5.23008         6.68464
     2007.67145         8.21153         6.86805
     2007.67419        11.92414         6.81716
     2007.67687        -2.23529         7.06737
     2007.67967         6.65336         6.76733
     2007.68240         5.59397         6.78642
     2007.68514        -4.10942         6.90516
     2007.68788         4.24419         6.77051
     2007.69062         5.33880         6.79066
     2007.69336         3.18141         6.48532
     2007.69609         1.46701         6.61042
     2007.69883        -8.11938         6.92849
     2007.70157        -6.16077         6.87123
     2007.70431        14.62884         6.76627
     2007.70705        -1.23855         7.05253
     2007.70978        10.78406         6.73765
     2007.71252         1.91967         6.64541
     2007.71526         6.70828         6.55529
     2007.71800        12.93589         6.45669
     2007.72073        19.07150         6.55529
     2007.72347        17.17711         6.77900
     2007.72621         6.54372         6.75461
     2007.72895        11.59233         6.43549
     2007.73169         4.82394         6.57437
     2007.73442         2.00855         6.56377
     2007.73716         9.20616         6.65071
     2007.73990         5.80177         6.59028
     2007.74264         8.98638         6.60830
     2007.74538         9.38699         6.84897
     2007.74811         3.45660         6.73129
     2007.75085         5.99821         6.84367
     2007.75359        16.34482         6.88184
     2007.75633        10.49043         6.68888
     2007.75906        15.06004         6.58710
     2007.76180        15.14065         6.73341
     2007.76454         7.74526         6.46517
     2007.76728         9.29287         7.05571
     2007.77002        16.64948         7.21368
     2007.77275         8.60309         6.78642
     2007.77549         8.74870         6.59028
     2007.77823        14.27930         6.45351
     2007.78097         7.08891         6.52561
     2007.78371         9.97352         6.47896
     2007.78644        14.49513         6.59982
     2007.78918        17.67574         6.77157
     2007.79192        24.39035         6.84155
     2007.79466        16.09796         6.63375
     2007.79739         4.63357         6.66343
     2007.80013        12.76718         6.64011
     2007.80287         4.60079         6.41110
     2007.80561         3.87340         6.55953
     2007.80835         7.09201         6.72280
     2007.81108         9.81062         6.54363
     2007.81382         4.13823         6.89668
     2007.81656        -6.09216         7.13735
     2007.81930         2.32145         6.62633
     2007.82203         7.14006         6.59240
     2007.82477        -2.01533         6.59240
     2007.82751         2.01128         6.66449
     2007.83025         0.55589         6.64011
     2007.83299         6.61450         6.43231
     2007.83572         5.41811         6.40050
     2007.83846         2.80872         6.61572
     2007.84120         2.96833         6.59240
     2007.84394         2.93594         6.50334
     2007.84668        -3.51845         6.43443
     2007.84941         6.60016         6.63375
     2007.85215         7.00077         6.50758
     2007.85489         6.62938         6.57225
     2007.85763         1.49499         6.57756
     2007.86036         9.21459         6.40580
     2007.86310         1.83720         6.50334
     2007.86584        12.60781         6.38036
     2007.86858         2.79042         6.64753
     2007.87132        10.17803         6.44609
     2007.87405         8.00964         6.67085
     2007.87679        18.43425         6.76097
     2007.87953         1.11286         6.93061
     2007.88227        -6.31553         7.07692
     2007.88501        -1.08392         6.61148
     2007.88774         3.25769         6.78112
     2007.89048         4.77730         6.34325
     2007.89322         7.46891         6.49910
     2007.89596         3.91552         6.55211
     2007.89778         8.51759        10.38478
     2007.90948         6.14247         6.58922
     2007.91238         4.77418         6.49274
     2007.91512        16.94379         6.61254
     2007.91786         6.80040         6.45033
     2007.92060        -2.88799         6.76945
     2007.92334         2.30662         6.57225
     2007.92607         5.71323         6.42595
     2007.92881        -0.79816         6.55211
     2007.93155         4.70345         6.63163
     2007.93429       -14.15994         6.91682
     2007.93697        -6.10437         7.15855
     2007.93976         3.12228         6.37824
     2007.94136        17.26521        14.63941
     2007.95448        15.65193        14.85357
     2007.95619         1.48693         6.49486
     2007.95893        18.99254         9.93737
     2007.96167         3.32715         6.45987
     2007.96440         0.79976         6.78536
     2007.96714         6.87637         7.52326
     2007.96988        -0.15202         6.56801
     2007.97262         0.40959         6.55847
     2007.97535         2.77420         6.55953
     2007.97809        -0.76519         6.96559
     2007.98083        -7.14058         6.46941
     2007.98357         5.91603         6.26373
     2007.98631        11.50864         6.53515
     2007.98904         4.16625         6.65495
     2007.99178         7.60986         6.55317
     2007.99452        -1.52053         6.63905
     2007.99726         3.54508         6.45881
     2008.00000       -10.09431         6.53303
     2008.00273         0.30730         6.61784
     2008.00553         2.64894         6.56907
     2008.00821         4.33652         6.30084
     2008.01095         7.96113         6.36445
     2008.01368        13.24174         6.25525
     2008.01642        11.79835         6.33795
     2008.01916         7.24896         6.36339
     2008.02190        -3.26943         6.52454
     2008.02464         8.24118         6.36021
     2008.02737        -9.42322         6.51394
     2008.03011         1.68139         6.43443
     2008.03285        -1.92800         6.62208
     2008.03559         6.40661         6.36975
     2008.03833        -6.01978         6.66131
     2008.04106        -3.36817         6.58816
     2008.04380       -11.15656         6.61890
     2008.04654        -4.87495         6.51818
     2008.04928         1.33066         6.49380
     2008.05201        -2.67973         6.46623
     2008.05475         1.60588         6.32098
     2008.05749        -9.47851         6.41640
     2008.06023        -2.85090         6.31250
     2008.06297         5.01971         6.32841
     2008.06570        -2.31768         6.36339
     2008.06844         6.21593         6.50970
     2008.07118        21.65654         6.87017
     2008.07392        24.09315         6.50334
     2008.07666        15.54076         6.60088
     2008.07939        -0.35263         6.54787
     2008.08213         0.81398         6.35597
     2008.08487        -3.15141         6.37612
     2008.08761        -0.09480         6.30720
     2008.09034         4.41381         6.16619
     2008.09308        -0.61258         6.22557
     2008.09582        -4.26497         6.60512
     2008.09856        -6.97236         6.71432
     2008.10130         8.01725         6.76733
     2008.10403         8.74286         6.27858
     2008.10677         3.16747         6.45139
     2008.10951        -8.09293         6.49062
     2008.11225        -5.39032         6.59452
     2008.11498        -7.95471         6.47790
     2008.11772        -3.95110         6.51606
     2008.12046        -9.06149         6.36339
     2008.12320        -1.07488         6.73235
     2008.12594         5.34473         6.73871
     2008.12867        -1.66666         6.86381
     2008.13141        -3.26505         6.41004
     2008.13415         2.17356         6.61042
     2008.13689        -1.99383         6.49486
     2008.13963         7.36078         6.27327
     2008.14236         6.19239         6.41958
     2008.14510        10.86300         6.36339
     2008.14784        -3.05639         6.58498
     2008.15058        -8.07978         6.83943
     2008.15331        -6.16917         6.53303
     2008.15605         1.29144         6.61890
     2008.15873        -4.88098         6.73023
     2008.16427        11.66927         7.51372
     2008.16700        -3.30112         6.34749
     2008.16974        -6.44051         6.45245
     2008.17248        -3.24390         6.45987
     2008.17522        -6.18029         6.56377
     2008.17796        -3.53068         6.35173
     2008.17960         6.50128        16.77149
     2008.19439        21.51398        16.08766
     2008.19712         5.91958         6.55953
     2008.19986        13.15419         6.58392
     2008.20260         0.92980         6.47365
     2008.20533        -3.93059         6.51606
     2008.20807         0.79602         6.76415
     2008.21081         2.43463         6.64647
     2008.21355         1.75124         6.53197
     2008.21629        -2.45315         6.67509
     2008.21902        -3.11554         6.64753
     2008.22176       -12.46793         6.73553
     2008.22450         0.12068         6.73765
     2008.22724         1.42729         6.69206
     2008.22997        -0.17010         6.74083
     2008.23271        -1.64949         6.73765
     2008.23545         3.62112         6.64435
     2008.23819         1.45373         6.59346
     2008.24093         5.52534         6.45351
     2008.24366        -2.79305         6.41746
     2008.24640         0.60456         6.47896
     2008.24914         0.78417         6.45669
     2008.25188         2.02878         6.70796
     2008.25462         1.38339         6.53939
     2008.25735         1.92600         6.71220
     2008.26009         4.21961         6.36657
     2008.26283        -6.75978         6.49062
     2008.26557        -5.31517         6.39838
     2008.26830         1.93644         6.80020
     2008.27104         1.91505         6.74401
     2008.27378         2.34765         6.60088
     2008.27652        -7.27174         6.53727
     2008.27926        -3.66513         6.66343
     2008.28199         5.88848         6.70266
     2008.28473        -1.51791         6.74719
     2008.28747        11.68070         6.74189
     2008.29021        -2.90069         6.81398
     2008.29295         0.52292         6.52985
     2008.29568         1.76153         6.53197
     2008.29842        -1.93386         6.48638
     2008.30116         2.24775         6.74083
     2008.30390        -1.88364         6.52985
     2008.30663         1.14697         6.60512
     2008.30937        -0.97242         6.62845
     2008.31211        -2.55381         6.63481
     2008.31485        -0.87420         6.64117
     2008.31759        -1.47059         6.54999
     2008.32032        -1.08098         6.75567
     2008.32306        -1.19337         6.67722
     2008.32580        13.47824         6.80338
     2008.32854         3.62285         6.61678
     2008.33128        -3.67354         6.59028
     2008.33401        -2.14893         6.35597
     2008.33675        -6.93132         6.59240
     2008.33949        -4.52071         6.45245
     2008.34223        -1.94610         6.48426
     2008.34496         0.34751         6.42701
     2008.34770         5.29112         6.55211
     2008.35044        -0.55627         6.49804
     2008.35318        -2.18166         6.44821
     2008.35592         0.79894         6.69100
     2008.35865         3.99155         6.64541
     2008.36139         4.09416         6.41110
     2008.36413         6.56977         6.46411
     2008.36687         3.54238         6.47896
     2008.36961        -3.78301         6.39414
     2008.37234         0.64560         6.38672
     2008.37508        10.31821         6.61466
     2008.37782         6.58082         6.39520
     2008.38056         4.16343         6.61254
     2008.38329         4.64304         6.68570
     2008.38603        -1.94035         6.61996
     2008.38877         6.04326         6.57544
     2008.39151         5.10687         6.56907
     2008.39425        -2.58952         6.48532
     2008.39698        -2.65291         6.64753
     2008.39972         5.87370         6.54575
     2008.40246         3.16531         6.45563
     2008.40520         2.36492         6.87017
     2008.40794         1.51453         6.49698
     2008.41067         7.41614         6.64753
     2008.41341        -4.49725         6.59346
     2008.41615         2.29836         6.41216
     2008.41889        -4.84303         6.58074
     2008.42162        -4.23142         6.56907
     2008.42436        -1.87381         6.58710
     2008.42710         2.58480         6.75143
     2008.42984         5.30441         6.78536
     2008.43258        -3.35898         6.55847
     2008.43531         0.13263         6.40262
     2008.43805        -1.09577         6.44503
     2008.44079         0.09284         6.56801
     2008.44353        -4.48255         6.34325
     2008.44626        -2.48794         6.50970
     2008.44900        -7.86233         6.41640
     2008.45174        -5.86072         6.36021
     2008.45448        -1.66011         6.34431
     2008.45722        -0.17950         6.45457
     2008.45995         8.20211         6.46305
     2008.46269        -4.99328         6.33371
     2008.46543        -2.71467         6.26585
     2008.46817        -5.24606         6.38248
     2008.47091        -5.05045         6.50440
     2008.47364        -2.89984         6.73659
     2008.47638         7.66977         6.52773
     2008.47912        -1.07462         6.37293
     2008.48186        -5.35101         6.26479
     2008.48459         0.24460         6.70478
     2008.48733        -4.82979         6.27646
     2008.49007        -0.55818         6.53939
     2008.49281         2.13643         6.41852
     2008.49555        -6.43696         6.50228
     2008.49828         7.70065         6.50970
     2008.50102         4.82026         6.48850
     2008.50376         9.33287         6.35173
     2008.50650         2.31548         6.46623
     2008.50924        -5.42491         6.34325
     2008.51197       -10.54830         6.65919
     2008.51471        -3.13669         6.56907
     2008.51745         0.07392         6.27009
     2008.52019         4.15853         6.32841
     2008.52292         6.80013         6.57225
     2008.52566        -6.23726         6.43867
     2008.52840         1.18035         6.22344
     2008.53108        -0.56607         6.53833
     2008.53388        -2.45543         6.44821
     2008.53661         1.36618         6.42276
     2008.53935         6.71979         6.47578
     2008.54209        -1.28660         6.31674
     2008.54483        -1.21399         6.60088
     2008.54762        -0.02034         6.54469
     2008.55030         2.09123         6.36021
     2008.55304         3.27984         6.43655
     2008.55578        -1.01855         6.36869
     2008.55852         1.99306         6.79384
     2008.56125        -4.89633         6.35491
     2008.56399         1.97728         6.47047
     2008.56673        -5.30011         6.38248
     2008.56947         8.17050         6.48426
     2008.57221         6.84611         6.37505
     2008.57494         9.23072         6.61360
     2008.57768         7.75733         6.67085
     2008.58042         0.91694         6.36975
     2008.58316        11.04055         6.30508
     2008.58590        -1.42484         6.49274
     2008.58863         8.08477         6.41534
     2008.59137        -1.03162         6.35173
     2008.59411         3.81499         6.39414
     2008.59685        -0.63640         6.38566
     2008.59958         4.30521         6.79596
     2008.60232         2.02882         6.74931
     2008.60506         6.30742         6.54469
     2008.60780         1.37003         6.68570
     2008.61054         1.87164         6.47896
     2008.61327         0.09825         6.38884
     2008.61601         6.47086         6.34643
     2008.61875        -6.05453         6.37612
     2008.62149         4.23408         6.41004
     2008.62423        -1.47131         6.44291
     2008.62696         7.74230         6.42595
     2008.62970         3.36991         6.47896
     2008.63244         9.33052         6.65813
     2008.63518        11.06413         6.54575
     2008.63791         8.98774         6.61890
     2008.64065         2.68235         6.55847
     2008.64339         1.59296         6.42595
     2008.64613        11.90957         6.56271
     2008.64887         6.24618         6.80232
     2008.65160         9.30379         6.52136
     2008.65434        -0.07560         6.74719
     2008.65708         3.48201         6.66131
     2008.65982         5.28962         6.79172
     2008.66256        14.61023         7.14689
     2008.66529         3.71084         6.61784
     2008.66803         4.20145         6.53303
     2008.67077        -5.28794         6.58710
     2008.67351         0.16667         6.56165
     2008.67624         1.07228         7.11720
     2008.67898         6.82489         6.65707
     2008.68172         3.52750         6.99740
     2008.68446        -0.74189         6.59452
     2008.68720        -4.78829         6.53515
     2008.68993        -0.02668         6.47365
     2008.69267         3.82993         6.64117
     2008.69541         0.92154         6.48320
     2008.69815         9.80815         6.57862
     2008.70089        -3.47424         6.50652
     2008.70362         1.03037         6.42913
     2008.70636         5.43298         6.47259
     2008.70910         0.87659         6.61148
     2008.71184        -0.76580         6.94333
     2008.71457        -7.65919         6.54363
     2008.71731        -5.20458         6.52454
     2008.72005        -0.42897         7.22004
     2008.72279        -4.26536         6.49592
     2008.72553        -5.33475         6.76733
     2008.72826        -6.70414         6.61148
     2008.73100         0.57647         6.52348
     2008.73374        -5.95692         6.59876
     2008.73648         1.89969         6.89456
     2008.73921        -3.05470         6.53939
     2008.74469        -1.13348         6.42701
     2008.74743        -4.95687         6.47047
     2008.75017        -0.08626         7.25185
     2008.75290        -8.69265         6.55635
     2008.75524        -4.62028         7.68124
     2008.75838        -6.84243         6.52667
     2008.76112        -0.74482         6.61042
     2008.76386       -10.88721         6.70160
     2008.76659       -14.19960         6.83731
     2008.76933         6.83800         6.65389
     2008.77207         2.73661         6.51288
     2008.77481         3.23322         6.45033
     2008.77754         3.41883         6.61042
     2008.78028         4.13244         6.53939
     2008.78302        12.52605         6.62420
     2008.78576        -1.76734         6.48426
     2008.78850         9.69527         6.82883
     2008.79123         4.78588         6.98362
     2008.79397         6.15649         6.58710
     2008.79671         1.79610         6.71326
     2008.79945        12.40371         6.56165
     2008.80219         6.15532         6.50546
     2008.80492        12.88693         6.45881
     2008.80766         5.91254         6.56483
     2008.81040        16.15115         6.48850
     2008.81314        14.69876         6.50652
     2008.81587         9.91137         6.50758
     2008.81861         2.00198         6.64435
     2008.82135         2.49959         6.82777
     2008.82409         0.95620         6.51076
     2008.82683        10.38981         6.57331
     2008.82956         6.96942         6.52242
     2008.83230         7.71503         6.48108
     2008.83504         5.15564         6.45245
     2008.83778        11.98625         6.43337
     2008.84074        17.52299         7.38226
     2008.84337        16.25953         6.65919
     2008.84599        14.16708         6.37718
     2008.84873         4.89069         6.51606
     2008.85147         7.51129         6.45457
     2008.85420        10.71490         6.57331
     2008.85694        13.21351         6.54681
     2008.85968        16.78512         6.51924
     2008.86242         8.37273         6.46835
     2008.86516        10.92534         6.52773
     2008.86789        13.53295         6.64223
     2008.87063         7.86956         7.00058
     2008.87337         1.08517         6.75673
     2008.87611        -0.46322         6.68994
     2008.87885         2.58739         6.54151
     2008.88158         5.81900         6.65071
     2008.88432         3.65761         6.70266
     2008.88706         8.45422         6.73659
     2008.88980         3.13683         6.67934
     2008.89253         7.76644         6.61042
     2008.89527         4.59105         6.77263
     2008.89801        13.85666         6.80020
     2008.90075         6.26927         6.55105
     2008.90349         7.44588         6.55635
     2008.90622        -1.12151         6.53197
     2008.90896         5.02310         6.57331
     2008.91170        13.30771         6.68888
     2008.91444        15.07732         6.49168
     2008.91718         5.49093         6.51712
     2008.91991        14.75954         6.62208
     2008.92265         5.85015         6.46729
     2008.92539         3.90276         6.53939
     2008.92813         6.00437         6.48638
     2008.93086         1.53798         6.84791
     2008.93360        -0.54541         6.54893
     2008.93634         2.82919         6.63905
     2008.93908        -1.74120         6.68040
     2008.94182         1.43641         6.62102
     2008.94455        -0.47398         6.62102
     2008.94729        -1.43537         7.06949
     2008.95003         4.23224         6.48638
     2008.95277         4.05285         6.27858
     2008.95551         5.78846         6.43867
     2008.95824         2.80607         6.51076
     2008.96098         8.63768         6.48320
     2008.96372         8.10429         6.36339
     2008.96646         3.49390         6.45139
     2008.96919       -10.89349         6.32310
     2008.97193         3.87312         6.50122
     2008.97467        -3.31027         6.43019
     2008.97741        -5.27466         6.47684
     2008.98927        -2.93369        12.13625
     2008.99150        -0.57738         7.85087
     2008.99384        -5.04600         6.48002
     2008.99657        -2.85839         6.64965
     2008.99931         5.54122         6.70902
     2009.00479         3.74044         6.88502
     2009.00752        -4.32995         6.38566
     2009.01026        -9.86734         6.42913
     2009.01300         1.71727         6.47578
     2009.01574         2.78188         6.79808
     2009.01848        -5.02052         6.58816
     2009.02121         2.70409         7.60384
     2009.02395        -7.78430         6.73341
     2009.02669       -12.77869         6.87866
     2009.02943       -10.16008         7.18188
     2009.03126       -38.52700        12.14685
     2009.03833        -8.74784         9.85679
     2009.04038       -10.32164         6.64223
     2009.04312       -15.63603         6.68252
     2009.04585       -21.09442         6.66131
     2009.05133       -21.68520         6.48532
     2009.05407       -25.97659         6.70372
     2009.05681       -10.30898         6.63799
     2009.05954       -15.58537         6.55317
     2009.06228       -24.64676         6.65071
     2009.06502       -23.17715         6.58074
     2009.06776       -27.54754         6.62845
     2009.07049       -21.03893         6.51394
     2009.07323       -15.54932         6.54999
     2009.07597       -11.31871         6.49380
     2009.07871        -9.48610         6.38672
     2009.08145        -9.25549         6.39096
     2009.08418         0.59412         6.74825
     2009.08692       -11.36327         6.37505
     2009.08966       -10.85066         6.44821
     2009.09240       -10.78805         6.46835
     2009.09514        -3.89644         6.51182
     2009.09787        -4.16683         6.46199
     2009.10061        -0.60923         6.79914
     2009.10335        -7.51562         6.56589
     2009.10609         5.71899         6.47896
     2009.10882       -10.18740         6.47153
     2009.11156        -8.10779         6.64223
     2009.11430        -7.37918         6.63587
     2009.11704        -8.96557         6.62208
     2009.11978        -3.25996         6.58074
     2009.12251        -6.58135         6.47365
     2009.12525        -2.44074         6.55635
     2009.12799        -2.58213         6.58498
     2009.13073        -4.17152         6.56271
     2009.13347       -10.44791         6.49062
     2009.13620        -7.29430         6.61466
     2009.13894        -6.21669         6.53197
     2009.14168        -4.16408         6.55423
     2009.14442        -1.34147         6.68358
     2009.14715        -6.14086         6.80550
     2009.14989        -9.22725         7.24549
     2009.15263        -7.96164         6.46623
     2009.15537        -3.82603         6.77475
     2009.15811        -6.70242         6.67828
     2009.16084        -8.63781         6.46941
     2009.16358         0.34380         6.63799
     2009.16632        -3.50159         6.50864
     2009.16906         0.84002         6.98044
     2009.17180         6.14863         6.62633
     2009.17453         4.34424         6.66449
     2009.17727         1.43785         6.59346
     2009.18001        -3.03554         6.36445
     2009.18275        -1.14294         6.35067
     2009.18548        -3.50033         6.39944
     2009.18822        -0.30072         6.51182
     2009.19096         0.69089         6.41640
     2009.19370        -6.59850         6.50758
     2009.19644        -0.48389         6.51924
     2009.19917         6.80072         6.87760
     2009.20191         8.99333         7.31228
     2009.20459       -11.29009         7.09176
     2009.20739        -7.65645         6.98362
     2009.21013       -24.35584         7.70880
     2009.21286        -1.06723         6.78536
     2009.21560         4.26938         6.70902
     2009.21834         0.83399         6.76203
     2009.22108         4.35260         6.75885
     2009.22381        -7.10179         6.65813
     2009.22655        -4.17718         6.91258
     2009.22929        -7.48057         6.69842
     2009.23197        -4.43399         7.48298
     2009.23477         1.69865         7.07692
     2009.23750        -1.52874         6.82140
     2009.24024        25.37187         6.84473
     2009.24298        -8.62152         6.68464
     2009.24572       -12.62891         6.62420
     2009.24846        -1.94430         6.72705
     2009.25119       -10.83769         7.02815
     2009.25393        -4.54308         6.88714
     2009.25667        -6.68347         6.78006
     2009.25941       -12.33086         6.72917
     2009.26214       -11.14425         6.64859
     2009.26568         3.30782        10.28194
     2009.26859        15.64853        13.01728
     2009.27405        17.35775        13.19328
     2009.27583        -7.74821         6.90092
     2009.27857       -10.14260         6.79490
     2009.28131       -16.78699         7.02603
     2009.28405       -14.80038         6.86275
     2009.28679        -9.62377         6.85957
     2009.28952       -18.84216         6.80444
     2009.29226       -10.21155         6.92000
     2009.29500       -16.14694         6.78430
     2009.29774       -10.64733         6.75143
     2009.30047       -14.00572         6.66979
     2009.30321        -9.38811         6.70478
     2009.30595       -10.62250         6.84897
     2009.30869        -5.02489         6.90410
     2009.31143        -5.26728         6.60724
     2009.31416        -3.45767         6.69312
     2009.31690       -10.62906         6.71432
     2009.31964       -11.15445         6.94863
     2009.32238        -3.07184         6.85215
     2009.32512         0.56077         7.10554
     2009.32785       -13.20262         6.67722
     2009.33059       -12.27801         6.72174
     2009.33333        -8.15440         6.96453
     2009.33607        -2.62679         7.18718
     2009.33880        -6.81518         6.77900
     2009.34154         4.29043         6.58604
     2009.34439        -4.36690         7.61126
     2009.34702        -3.14936         7.07373
     2009.34976        -3.57275         7.18824
     2009.35249        -1.41114         7.03133
     2009.35523        -3.74753         6.84897
     2009.35797        -2.70892         7.46495
     2009.36071        -2.96731         7.10130
     2009.36344        -3.76770         6.58180
     2009.36618        -1.48109         6.79490
     2009.36892        -3.16948         6.52667
     2009.37166       -11.01087         7.18400
     2009.37440        -8.21526         6.90516
     2009.37713       -11.83565         6.74401
     2009.37987       -28.19204         7.78514
     2009.38261         4.06457         7.20202
     2009.38535       -12.64082         6.73765
     2009.38809        -5.24721         7.05041
     2009.39082       -10.38660         6.62633
     2009.39356        -8.79399         6.72068
     2009.39630        -3.91038         7.18506
     2009.39904        -1.54877         6.55741
     2009.40177         1.50484         6.77157
     2009.40451        -1.62955         6.87760
     2009.40725        -3.25094         6.99846
     2009.40999        -2.66033         7.00800
     2009.41273        -0.22972         6.84791
     2009.41546        -1.40411         6.61254
     2009.41820        -3.34650         6.62420
     2009.42094       -12.81589         6.67722
     2009.42368        -5.40228         6.78960
     2009.42642       -13.77567         6.90622
     2009.42915        -5.40406         6.85957
     2009.43189        -6.56246         6.63481
     2009.43463        -6.18685         6.79384
     2009.43737         4.49876         6.63799
     2009.44010        -8.13963         6.71856
     2009.44284        -4.61802         6.53833
     2009.44558        -9.34741         6.47153
     2009.44832        -2.02980         6.51182
     2009.45106        -4.27419         6.55847
     2009.45379        -1.22958         6.63905
     2009.45653        -2.65697         6.59664
     2009.45927       -13.84836         6.49592
     2009.46201        -1.44775         6.68888
     2009.46475        -5.20514         6.60618
     2009.46748         0.60647         6.75991
     2009.47022        -3.42392         6.48214
     2009.47296        -7.57231         6.53939
     2009.47570       -12.71270         6.57544
     2009.47843        -1.35209         6.42807
     2009.48053       -11.78486         9.29700
     2009.48391        -3.24987         6.64435
     2009.48659        -9.58830         6.68358
     2009.48939        -6.28665         6.79596
     2009.49207        -3.20508         6.95499
     2009.49486        -7.53243         6.93485
     2009.49683       -10.75827        10.57455
     2009.49957       -16.65866        10.85657
     2009.50308         2.72240         6.80868
     2009.50581        -1.50799         6.45351
     2009.50855         1.08462         6.56801
     2009.51129        11.88923         6.61042
     2009.51403         0.62683         6.65177
     2009.51676        -2.08356         6.40580
     2009.51950        -3.74695         6.48638
     2009.52218       -15.80237         6.63799
     2009.52498         2.38527         6.65177
     2009.52772        -9.38512         6.75249
     2009.53045         4.93949         6.56377
     2009.53319        -9.78290         7.03451
     2009.53593        -1.31829         6.60936
     2009.53867        -1.44268         6.45775
     2009.54141         0.82093         6.41110
     2009.54414        -7.41746         6.64647
     2009.54688        -5.13685         6.61042
     2009.54962       -11.28524         6.50016
     2009.55236        -4.76463         6.62208
     2009.55509         5.43198         6.51500
     2009.55783         2.09659         6.53303
     2009.56057        -6.11180         7.03557
     2009.56331        -0.15019         6.76839
     2009.56605        -6.59558         6.76203
     2009.56878       -13.15197         6.61148
     2009.57152         0.56364         6.58074
     2009.57426        -2.92675         6.59876
     2009.57700         3.93786         6.57756
     2009.57974         4.16547         6.63057
     2009.58247         1.49508         6.50652
     2009.58521       -12.17531         6.60300
     2009.58795        -1.57970         6.35491
     2009.59069        -1.50309         6.66343
     2009.59342         0.77452         6.76839
     2009.59616        -4.80988         6.60088
     2009.59890         7.91773         6.62102
     2009.60164        -2.39866         6.52242
     2009.60438        -3.89305         6.50334
     2009.60711        -2.91644         6.72174
     2009.60985       -11.98083         6.65813
     2009.61259        -3.52222         6.67297
     2009.61533       -15.38961         6.77475
     2009.61807        11.08600         6.68676
     2009.62080        -2.19339         6.56907
     2009.62354       -14.92678         7.10554
     2009.62628        -2.22417         6.76097
     2009.62902        -3.84456         6.76733
     2009.63175        -2.91095         6.78112
     2009.63449       -12.26134         6.97832
     2009.63723        -7.26873         6.75991
     2009.63997        -6.80112         7.16279
     2009.64271        -1.53151         6.90198
     2009.64544        -6.65890         6.72917
     2009.64818        -1.89829         7.23383
     2009.65092        -7.44268         6.60830
     2009.65366       -16.10607         6.89138
     2009.65639       -15.54246         6.70372
     2009.65913         4.99815         6.66449
     2009.66187        -2.98224         6.84473
     2009.66461         4.42537         6.85957
     2009.66735         5.34398         6.84473
     2009.67008        -3.32341         6.66873
     2009.67282        -0.67880         6.85215
     2009.67556        -6.81419         6.86911
     2009.67824         1.97938         7.31228
     2009.68104        -3.87398         7.06843
     2009.68651        -7.41276         6.60406
     2009.68925        -3.46315         6.52667
     2009.69472        -7.04593         6.50228
     2009.69746        -4.43732         6.53833
     2009.70020         6.93129         6.64859
     2009.70294         3.24590         6.69630
     2009.70568        -7.95549         6.52242
     2009.70841        -5.63888         6.53833
     2009.71115        -7.29227         6.58074
     2009.71389        -3.15366         6.94015
     2009.71663       -11.76505         6.67191
     2009.71937        -6.09444         6.66343
     2009.72210       -19.94083         6.60088
     2009.72484        -7.78922         6.69630
     2009.72758       -11.34761         6.73553
     2009.73032         0.91100         6.61572
     2009.73305       -16.13139         6.81292
     2009.73579        -2.96678         6.55953
     2009.73853        -7.32217         6.52030
     2009.74127         3.50944         6.73977
     2009.74401         2.10705         6.73765
     2009.74640         3.98246         7.48722
     2009.74948        -0.96273         7.80422
     2009.75222         1.61788         7.17658
     2009.75496        -1.01351         6.66979
     2009.77412        -4.52725         7.04617
     2009.77686       -11.72164         7.23595
     2009.77960        -4.94003         7.73319
     2009.78234         9.27158         6.64541
     2009.78507         2.82319         6.89562
     2009.78787        -4.72816         6.90834
     2009.79055        -5.67159         6.85533
     2009.79329        -7.02198         7.29108
     2009.79603         0.37863         6.92743
     2009.79799        12.02379         9.82923
     2009.80139         6.12978         7.18294
     2009.80424        -7.06854         6.96453
     2009.80698        -0.03493         7.30486
     2009.80971        -3.78332         6.87654
     2009.81245         9.78229         7.45435
     2009.81793       -19.70349         9.97447
     2009.81979        23.75060        12.10762
     2009.82323        -7.43737        13.68416
     2009.82512        20.13673        14.21850
     2009.82772       -24.35274        16.34105
     2009.83053        35.66692        13.40744
     2009.83709        13.13478         8.14137
     2009.83983        -6.79861         6.78430
     2009.84157        15.21441        11.70474
     2009.84433        20.79103        11.75139
     2009.85078        -0.87718         7.09918
     2009.85312         2.56320         9.07011
     2009.85614         6.49898         8.17423
     2009.85837       -19.49772        12.76919
     2009.93678       -23.01161        17.26661
     2009.93839         4.96333         6.90304
     2009.94113         2.42594         6.85851
     2009.94387        -5.77545         6.92531
     2009.94661        -0.05284         6.75249
     2009.94935         0.51677         6.52561
     2009.95208        -4.66562         6.48108
     2009.95482        -7.56001         6.58286
     2009.95756        -1.45240         6.70796
     2009.96030        -6.41379         6.73129
     2009.96303        -4.38018         6.73871
     2009.96577        -8.04157         6.70690
     2009.96851       -13.03396         6.86699
     2009.97125        -6.52635         6.94015
     2009.97399        -3.56274         6.80338
     2009.97672        -6.83513         6.68358
     2009.97946       -10.56952         6.65071
     2009.98220        -6.89791         6.61360
     2009.98494       -16.17730         6.81398
     2009.98767        -2.75769         6.55105
     2009.99041        -6.38508         6.66767
     2009.99315         0.70253         6.61678
     2009.99589        -2.97586         6.55211
     2009.99863        -8.27725         6.49380
     2010.00410        -1.95803         6.66025
     2010.00684       -12.53442         6.70160
     2010.00958        -9.93882         6.59240
     2010.01232       -12.37121         6.70690
     2010.01505       -12.66260         6.80550
     2010.01779       -12.88799         6.67616
     2010.02053        -1.83438         6.73129
     2010.02287       -12.18100         8.15833
     2010.10266         3.08291         6.66237
     2010.10540         2.96952         6.65283
     2010.10814         1.90013         6.67191
     2010.11088         3.07674         6.67616
     2010.11362         5.51835         6.49592
     2010.11635         6.73696         6.41640
     2010.11909         1.08057         6.55211
     2010.12183         2.23118         6.64753
     2010.12457         1.18479         6.45881
     2010.12731         6.50340         6.85109
     2010.13004        -5.73999         6.61572
     2010.13278        -5.98938         6.75461
     2010.13552        -1.31177         6.58074
     2010.13826        -7.33216         6.68358
     2010.14099        -7.43255         6.53197
     2010.14373        -4.79194         6.78536
     2010.14647        -4.23833         6.77582
     2010.14921         1.59928         6.71750
     2010.15195         5.64289         6.49804
     2010.15468         8.35950         6.58604
     2010.15742         1.13311         6.67191
     2010.16016         0.16472         6.44185
     2010.16290        -6.80767         6.55953
     2010.16564        -8.15406         6.72068
     2010.16837         5.46955         6.59770
     2010.17111        11.73416         6.55529
     2010.17385        -4.25324         6.63799
     2010.17659        -1.23563         6.37505
     2010.17932         2.02698         6.57968
     2010.18206        -0.94741         6.58498
     2010.18480         4.32120         6.45139
     2010.18754         1.40681         6.41958
     2010.19028        -5.87758         6.63799
     2010.19301         2.27803         6.61572
     2010.19575        -0.35736         6.64859
     2010.19849        -4.19375         6.68146
     2010.20123        -4.86314         6.52030
     2010.20397        -3.39353         6.72174
     2010.20670        -3.37692         6.81186
     2010.20944        -7.61631         6.58816
     2010.21218        -6.98570         6.61360
     2010.21492        -2.28509         6.60512
     2010.21765        -5.22348         6.61148
     2010.22039        -1.96687         6.52561
     2010.22313        -6.90226         6.58922
     2010.22587        -5.19965         6.57650
     2010.22861         0.87596         6.64329
     2010.23134         4.06657         6.74083
     2010.23956         6.31940         6.59770
     2010.24230         4.47701         6.95287
     2010.24503         8.88662         6.73023
     2010.24777         4.91323         6.64859
     2010.25051         0.92384         6.91470
     2010.25325         3.57145         6.46623
     2010.25598         2.79505         6.62845
     2010.25872         7.74166         6.74825
     2010.26146         6.16227         6.84473
     2010.26420        -3.92112         6.81292
     2010.26694        -5.58051         6.74613
     2010.26967         2.40910         6.75461
     2010.27241        -2.65129         6.87866
     2010.27515         1.01032         6.89774
     2010.27789        -1.35107         6.89880
     2010.28062         2.90954         6.60936
     2010.28336       -11.91985         6.78006
     2010.28610       -11.88024         6.72705
     2010.28884        -3.01763         6.63693
     2010.29158         1.36298         7.01436
     2010.29431        -0.46841         7.02603
     2010.29705        -4.93980         6.50334
     2010.29979        -0.18119         6.84897
     2010.30253         5.30242         6.83095
     2010.30527         7.16003         6.95181
     2010.30800         5.78164         6.53091
     2010.31074        -1.22775         6.58498
     2010.31348         1.94186         6.79702
     2010.31622         8.68547         6.81398
     2010.31895        10.56608         7.05359
     2010.32169         5.75469         6.78642
     2010.32443         4.51230         6.79384
     2010.32717        -0.71409         6.63693
     2010.32991        11.88552         6.70266
     2010.33264         1.22813         6.64223
     2010.33538        13.62874         6.89668
     2010.33812         0.94435         6.70584
     2010.34086        -1.23005         6.72280
     2010.34360        -0.25544         6.69206
     2010.34633        -3.45783         6.74613
     2010.34907        -3.82822         6.61572
     2010.35181        -4.41161         6.50016
     2010.35455         1.16900         6.54999
     2010.35728        -5.30639         6.66025
     2010.36002         4.32722         6.70902
     2010.36276         3.77583         6.59346
     2010.36550         5.67044         6.89032
     2010.36824         5.36505         6.78430
     2010.37097         0.02866         6.61254
     2010.37371         6.52927         6.69948
     2010.37645         6.69488         6.60936
     2010.37919         0.17849         6.86169
     2010.38193         4.89710         7.02390
     2010.38466        -0.14529         6.72386
     2010.38740         6.67132         6.73235
     2010.39014         8.72493         6.83837
     2010.39288         4.37854         6.65177
     2010.39561        -0.00785         6.71538
     2010.39835         3.36076         6.59558
     2010.40109        -2.71363         6.43867
     2010.40383        -0.03302         6.44927
     2010.40657         3.75859         6.40262
     2010.40930        -1.24080         6.62527
     2010.41204        -0.58019         6.57437
     2010.41478         9.42942         6.73235
     2010.41752         9.49003         6.40474
     2010.42026         9.08364         6.43867
     2010.42299        11.94424         6.54045
     2010.42573        -2.24915         6.65389
     2010.42847        -3.26154         6.53197
     2010.43121        -3.02293         6.41322
     2010.43394        -2.16032         6.35279
     2010.43668       -11.53371         6.64117
     2010.43942         6.34090         6.38460
     2010.44216        -7.66449         6.49062
     2010.44490        -3.93688         6.35703
     2010.44763       -12.30627         6.35703
     2010.45037         0.00134         6.54045
     2010.45311        -5.72005         6.43867
     2010.45585        -4.67044         6.38566
     2010.45859        -7.18483         6.48108
     2010.46132        -3.63422         6.29236
     2010.46406        -6.75661         6.39202
     2010.46680         3.00500         6.56059
     2010.46954         1.71461         6.38460
     2010.47227        -7.17278         6.26903
     2010.47501       -11.63417         6.29660
     2010.47775        -8.06356         6.73659
     2010.48049        -6.73395         6.65813
     2010.48323         0.25766         6.42913
     2010.48596        -1.98573         6.32523
     2010.48870         2.49188         6.24889
     2010.49144         1.73349         6.34749
     2010.49418         2.22210         6.42170
     2010.49692         3.07571         6.39096
     2010.49965        -0.12368         6.43549
     2010.50239         7.51493         6.25101
     2010.50513        -1.93747         6.35597
     2010.50787        -4.99886         6.38566
     2010.51060         0.31575         6.32098
     2010.51334        -4.51564         6.36233
     2010.51608        -0.25003         6.30084
     2010.51882         0.36358         6.42382
     2010.52156         8.61619         6.48426
     2010.52429         7.00080         6.48002
     2010.52703         5.20041         6.70796
     2010.52977         2.72702         6.39520
     2010.53251        -3.53937         6.29660
     2010.53525         0.34124         6.33265
     2010.53798        -0.00615         6.51394
     2010.54072         2.66946         6.31886
     2010.54346        -4.31193         6.45457
     2010.54620        -0.33032         6.30190
     2010.54893        -1.81371         6.32310
     2010.55167        -9.38010         6.51076
     2010.55441         0.75951         6.48214
     2010.55715        -6.93488         6.48956
     2010.55989         5.38173         6.36975
     2010.56262         3.52834         6.31886
     2010.56536        -2.28105         6.48214
     2010.56810        -1.46844         6.54681
     2010.57084         4.61717         6.61996
     2010.57357        -1.67522         6.68040
     2010.57631         5.13839         6.68676
     2010.57905        -2.45600         6.46729
     2010.58179         2.89561         6.50970
     2010.58453        -8.74378         6.36233
     2010.58726        -6.02418         6.61890
     2010.59000        -1.11957         6.58074
     2010.59274        12.07904         6.60406
     2010.59548        -4.82835         6.69312
     2010.59822        -7.41674         6.51606
     2010.60095        10.15887         6.58604
     2010.60369         4.22448         6.40156
     2010.60643         4.35809         6.53091
     2010.60859         0.25136         8.93971
     2010.61550         3.02843         9.99144
     2010.61738        -5.15247         6.42913
     2010.62012         4.80414         6.44821
     2010.62286         5.90575         6.55953
     2010.62559         3.69136         6.52561
     2010.62833         2.14497         6.62527
     2010.63107        11.02058         6.68888
     2010.63381         8.41219         6.43867
     2010.63655         8.06080         6.64117
     2010.63928         3.19841         6.49062
     2010.64202         3.20602         6.58074
     2010.64476        -8.27437         6.55529
     2010.64750        -0.74376         6.44715
     2010.65023        -5.96015         6.67616
     2010.65297         0.27746         6.93273
     2010.65571         2.98007         6.34749
     2010.65845         1.40368         6.45245
     2010.66119         5.33429         6.58498
     2010.66392         7.66490         6.48638
     2010.66666        -1.43349         6.42807
     2010.66940         7.32911         6.40262
     2010.67214         2.43672         6.41216
     2010.67488         4.26733         6.51394
     2010.67761         2.06894         6.41004
     2010.68035         0.27555         6.30614
     2010.68309         2.34516         6.44927
     2010.68583         7.37977         6.44503
     2010.68856         1.05638         6.31992
     2010.69130        -6.74801         6.39838
     2010.69404        -3.70740         6.63693
     2010.69678        -1.76479         6.36445
     2010.69952        -7.46018         6.38884
     2010.70225         3.50243         6.46199
     2010.70499        -0.44896         6.41428
     2010.70773        -5.64435         6.49274
     2010.71047         0.95526         6.43125
     2010.71321        17.38787         6.72386
     2010.71594        11.27548         6.49698
     2010.71868         5.05109         6.41110
     2010.72142        -1.04930         6.59452
     2010.72416        -1.04469         6.60406
     2010.72689         2.67292         6.56377
     2010.72963         4.20253         6.53621
     2010.73237        -1.05386         6.45139
     2010.73511        -0.29925         6.37718
     2010.73785         1.15736         6.68146
     2010.74058         1.53297         6.60936
     2010.74332         0.05858         6.64965
     2010.74606         6.32819         6.56483
     2010.74880         1.71480         6.51076
     2010.75154         2.92740         6.48214
     2010.75416        16.16195         6.93061
     2010.75701        -2.45038         6.56801
     2010.75975         3.66823         6.46199
     2010.76249         0.47084         6.50122
     2010.76522         2.72845         6.57650
     2010.76796         0.78406         6.46941
     2010.77070        -1.52633         6.43231
     2010.77344         1.92828         6.52773
     2010.77618        -8.01511         6.62739
     2010.77891         4.14750         6.44185
     2010.78165         1.62311         6.41640
     2010.78439        -4.47328         6.49910
     2010.78713         1.99133         6.73341
     2010.78987        -3.23106         6.49274
     2010.79260         6.68255         6.54575
     2010.79534         2.02016         6.40792
     2010.79808         1.31777         6.37824
     2010.80082         1.28838         6.41958
     2010.80355         0.29999         6.57650
     2010.80629         6.08860         6.53409
     2010.80903         3.56221         6.52985
     2010.81177         3.78182         6.58498
     2010.81451         3.08743         6.41958
     2010.81724         8.27604         6.34961
     2010.81998         2.41665         6.54363
     2010.82272        -1.64674         6.61360
     2010.82546         2.09787         6.47365
     2010.82820         0.83348         6.62102
     2010.83093         8.21209         6.88396
     2010.83367        11.26370         6.85957
     2010.83641         0.29630         6.46093
     2010.83915        -3.08209         6.43973
     2010.84188        -4.48748         6.44927
     2010.84462         4.54213         6.33689
     2010.84736         4.76974         6.45033
     2010.85010         4.15035         6.38566
     2010.85284         4.21196         6.39520
     2010.85557        -1.23843         6.35067
     2010.85831         1.19518         6.31992
     2010.86105        -1.88521         6.19058
     2010.86379        -3.53760         6.30614
     2010.86653        -3.71099         6.32735
     2010.86926        -1.55938         6.33795
     2010.87200         1.92223         6.34113
     2010.87474         1.17784         6.50546
     2010.87748         5.08745         6.31674
     2010.88021         9.75206         6.39096
     2010.88295         8.05467         6.38142
     2010.88569        -0.01872         6.37505
     2010.88843         1.48289         6.58180
     2010.89117         7.17350         6.48850
     2010.89390         6.47811         6.21072
     2010.89664        -2.70328         6.27964
     2010.89938         4.93333         6.27433
     2010.90212         0.39594         6.45563
     2010.90485        -1.50745         6.45351
     2010.90759         5.39916         6.12166
     2010.91033        -5.38723         6.25631
     2010.91307        -6.62262         6.27009
     2010.91581       -11.17401         6.33477
     2010.91854         3.24459         6.53303
     2010.92128       -14.65680         6.29660
     2010.92402         1.63781         6.17892
     2010.92676         1.09742         6.37505
     2010.92950         0.40103         6.37505
     2010.93223        -7.88736         6.46729
     2010.93497        -5.57975         6.61254
     2010.93771        -2.77614         6.34855
     2010.94045         1.12047         6.55741
     2010.94318         5.19708         6.25737
     2010.94592        -4.74131         6.58180
     2010.94866         5.00730         6.48956
     2010.95140         6.19591         6.60830
     2010.95414         6.72152         6.41216
     2010.95687         2.35213         6.41746
     2010.95961        -2.41226         6.52348
     2010.96235         0.62335         6.34643
     2010.96509        -0.07204         6.53939
     2010.96783         7.97657         6.36339
     2010.97056         3.96718         6.24995
     2010.97330         3.42979         6.33265
     2010.97604        -0.69660         6.33159
     2010.97872        -4.01903         6.50440
     2010.98151        -9.57638         6.49062
     2010.98425         0.83523         6.36975
     2010.98699         6.22784         6.40686
     2010.98973        -2.52555         6.77582
     2010.99247         4.95706         6.63799
     2010.99520        10.08767         6.43337
     2010.99794        -8.25172         6.39626
     2011.00616        -4.68190         6.32204
     2011.00889         3.15471         6.36551
     2011.01163         4.42432         6.23935
     2011.01437        -1.20807         6.40686
     2011.01711         3.27354         6.68358
     2011.01983        -7.14786         6.67191
     2011.02258        -5.00524         6.28282
     2011.02532        -6.36463         6.43019
     2011.02806        -6.33902         6.61996
     2011.03080       -12.98041         6.51606
     2011.03353        -0.12580         6.45245
     2011.03627        -4.20919         6.41746
     2011.03901        -6.16258         6.38990
     2011.04175        -2.84997         6.40580
     2011.04449        -6.91536         6.42701
     2011.04722        -2.52475         6.48002
     2011.04996        -4.27714         6.49910
     2011.05270        -8.91853         6.41958
     2011.05544         0.13608         6.37187
     2011.05817         4.42069         6.35385
     2011.06091        -2.39970         6.46835
     2011.06365        -2.11409         6.41746
     2011.06639         0.25352         6.36127
     2011.06913        -9.83987         6.69630
     2011.07186        -3.98026         6.41216
     2011.07460        -6.19265         6.39520
     2011.07734         3.80796         6.39838
     2011.08008        -2.63643         6.53939
     2011.08282        -5.66383         6.42701
     2011.08555       -16.66722         6.44609
     2011.08829        -9.45261         6.41216
     2011.09103        -9.51700         6.33583
     2011.09377        -3.01539         6.51288
     2011.09650        -3.39478         6.45245
     2011.09924        -4.38617         6.35809
     2011.10198        -2.48056         6.45351
     2011.10472         0.30105         6.42276
     2011.10746        -4.37534         6.34537
     2011.11019         4.11527         6.45987
     2011.11293         0.81988         6.55105
     2011.11567        -3.81451         6.48002
     2011.11841        -2.23390         6.48850
     2011.12115         0.98771         6.50440
     2011.12388        14.99532         7.04405
     2011.12662        12.54693         6.81398
     2011.12936         2.28154         6.36021
     2011.13210        -3.25085         6.30720
     2011.13483        -2.24624         6.30296
     2011.13757         2.62937         6.29236
     2011.14031        -0.76902         6.40262
     2011.14305         0.41059         6.56907
     2011.14579         1.77720         6.50334
     2011.14852        -1.47119         6.21920
     2011.15086         0.05818         7.45541
     2011.15400         9.10103         6.18104
     2011.15674         0.58064         6.33477
     2011.15948         5.99025         6.35067
     2011.16221        -5.44114         6.46305
     2011.16495         3.20246         6.44397
     2011.16769         2.93407         6.27433
     2011.17043       -11.75232         6.43761
     2011.17316       -15.80071         6.43549
     2011.17590        -5.01910         6.51924
     2011.17864         5.42151         6.34007
     2011.18138         0.63212         6.41110
     2011.18412        -1.86327         6.39414
     2011.18685        -4.38066         6.43655
     2011.18959        -4.74405         6.36233
     2011.19233        -3.06944         6.44503
     2011.19507       -10.27583         6.54257
     2011.19780         7.35478         6.51076
     2011.20054        -9.17261         6.33371
     2011.20328         5.53100         6.53727
     2011.20602         4.23361         6.59028
     2011.20876        -5.17178         6.45245
     2011.21149        -5.18717         6.43231
     2011.21423        -1.91356         6.48108
     2011.21697         9.47405         6.55529
     2011.21971         5.29966         6.52242
     2011.22245         5.40627         6.36021
     2011.22518        -3.02912         6.31674
     2011.22792         5.93649         6.41428
     2011.23066         4.54910         6.55317
     2011.23340         7.59771         6.50758
     2011.23613         4.50832         6.36657
     2011.23887         2.05093         6.34643
     2011.24161         4.17254         6.41110
     2011.24435        -6.28785         6.44079
     2011.24709         2.26376         6.36869
     2011.24982        -2.58464         6.40368
     2011.25256         3.96497         6.46411
     2011.25530         2.17158         6.31568
     2011.25804         1.99819         6.62527
     2011.26078        -1.29320         6.60406
     2011.26351         4.92541         6.34749
     2011.26625        -1.55698         6.42488
     2011.26899        11.77663         6.37293
     2011.27173         3.32824         6.55635
     2011.27446         0.56685         6.73977
     2011.27720        -5.50554         6.66131
     2011.27994        -1.14193         6.38460
     2011.28268        -1.72132         6.26691
     2011.28542         6.85929         6.49910
     2011.28815        -0.53510         6.54257
     2011.29089        13.03351         6.40686
     2011.29363         6.09112         6.31674
     2011.29637        -2.73427         6.39202
     2011.29911         4.36134         6.48108
     2011.30184         9.18195         6.53939
     2011.30458       -10.05144         6.48320
     2011.30732        -8.40083         6.47578
     2011.31006        -3.73122         6.45669
     2011.31279        -8.73061         6.57225
     2011.31553        -5.32200         6.39520
     2011.31827        -4.96639         6.21920
     2011.32101         1.79922         6.31462
     2011.32375        -2.13917         6.24359
     2011.32648        -2.73756         6.12378
     2011.32922        -5.79095         6.13969
     2011.33196        -3.70435         6.25419
     2011.33470        -9.54574         6.42807
     2011.33744        -3.56013         6.35915
     2011.34017         1.61048         6.45245
     2011.34291         5.51009         6.39414
     2011.34565        -0.48930         6.41110
     2011.34839        -0.91169         6.25631
     2011.35112         2.53592         6.29024
     2011.35386        -1.75847         6.22557
     2011.35660         0.00814         6.17467
     2011.35934        -8.13925         6.20966
     2011.36208       -10.17164         6.27646
     2011.36481        -3.96103         6.34431
     2011.36755        -2.18442         6.34643
     2011.37029         3.83019         6.48850
     2011.37303        -0.18220         6.25737
     2011.37577        -0.72859         6.33901
     2011.37850        -1.03398         6.29872
     2011.38124         0.32763         6.25737
     2011.38398        -6.12476         6.29766
     2011.38672         0.15785         6.26373
     2011.38945         1.82046         6.18740
     2011.39219         3.57307         6.27646
     2011.39493        -2.76632         6.33583
     2011.39767         1.45129         6.24995
     2011.40041         3.04090         6.29342
     2011.40314         9.07551         6.17255
     2011.40588        -1.80688         6.34855
     2011.40862         2.99273         6.31886
     2011.41136         1.45934         6.44715
     2011.41410         5.71694         6.32735
     2011.41683         2.56855         6.32735
     2011.41957        -0.98784         6.19270
     2011.42231       -10.93723         6.22663
     2011.42505         4.58238         6.34961
     2011.42778         0.91999         6.33477
     2011.43052         7.38260         6.23935
     2011.43326        -4.98579         6.31250
     2011.43600        -4.61218         6.27433
     2011.43874        -7.07957         6.32204
     2011.44119        -3.19913         7.26351
     2011.44421        -0.30035         6.18104
     2011.44695        -1.95274         6.24465
     2011.44969        -2.53413         6.15771
     2011.45243        -3.31152         6.36339
     2011.45516        -5.78691         6.34855
     2011.45790         1.96670         6.25737
     2011.46064        -4.41069         6.30084
     2011.46338         6.84792         6.26267
     2011.46611         1.92253         6.21602
     2011.46885         2.94614         6.20118
     2011.47159         0.35475         6.25949
     2011.47433         0.42536         6.56271
     2011.47707         3.66097         6.25419
     2011.47980         0.67458         6.15453
     2011.48254        -0.99481         6.24147
     2011.48528        -3.60820         6.29978
     2011.48802         5.05141         6.21814
     2011.49076        -1.05398         6.47471
     2011.49349         0.47863         6.37612
     2011.49623         3.14823         6.23617
     2011.49897        10.87684         6.56059
     2011.50171         0.68645         6.62527
     2011.50444         6.52306         6.56907
     2011.50718         6.98167         6.51182
     2011.50992         3.12328         6.55741
     2011.51266         1.01689         6.57862
     2011.51540         1.00350         6.70690
     2011.51813        11.45911         6.51500
     2011.52087        13.12272         6.55423
     2011.52361         9.39333         6.50970
     2011.52635        21.35794         6.60724
     2011.52908         7.93355         6.65495
     2011.53182        -2.32184         6.61678
     2011.53456         3.19777         6.48744
     2011.53730         8.33238         6.73129
     2011.54004         4.91999         6.57013
     2011.54277         8.32360         6.52030
     2011.54551         4.62921         6.49804
     2011.54825         2.16382         6.51076
     2011.55099         3.17443         6.63057
     2011.55373         7.52304         6.61042
     2011.55646        19.20765         6.64541
     2011.55806       -19.92841        21.69088
     2011.56194        12.54787         6.75143
     2011.56468         1.40648         6.67828
     2011.56741         7.14309         6.55847
     2011.57015         7.11470         6.77157
     2011.57289        11.19331         6.55211
     2011.57563         5.47592         6.60936
     2011.57837         8.75652         6.75673
     2011.58110         1.61513         6.66661
     2011.58384        -2.32626         6.66237
     2011.58658        12.82535         6.80762
     2011.58932         4.54896         6.48744
     2011.59206         9.82057         6.56801
     2011.59479         6.19618         6.60300
     2011.59753        11.19579         6.54999
     2011.60027         9.79040         6.59452
     2011.60301        16.03301         6.48320
