# ================= DQRFIT RESULTS ================
# INPUT FILE: series/TIRE.rad
# OUTPUT: LDETRENDED
# FILTER FUNCTION: f(t)
# f(t)=+line(t)
# line(t)=+P 1+P 2*t
# heav(t)=(t<0?0:1)
# TOTAL OBSERVATIONS MTOT=  485
# INITIAL TIME INTERVAL= 2018.3518 - 2006.5134 = 11.8385
# TOTAL OBSERVATIONS AFTER PREFILTER M=  485
# TIME-SPAN=    0.0000 -    0.0000 =  0.0000
# OBSERVATIONS: USED M=   485 REJECTED MTOT-M=     0 %USED=  100.0000
# N=  2 PARAMETERS
# MAXSIG= 175.00000
# MAXRES=  18.96803
# SCALE FACTOR FOR LENGTHS: SCL=  10.00000
# SCALE FACTOR FOR SIGMAS: SCLSIG=   1.00000
# CHI^2=    481.123 DOF=   483 CHI^2/DOF=   0.99611
# RMS=      5.687 SDEV=      5.692 MEAN=   -0.00105
#  P #       PARAMETER +-    SIGMA %error PARAMETER NAME
# P 1 =       877.54878 +-  114.531  13.05 YZERO                              
# P 2 =        -0.43417 +-    0.057  13.10 SLOPE                              
#       T            LDETRENDED       SIG_OBS
     2006.51335        -3.38063         5.90050
     2006.51609        -5.72044         6.00729
     2006.51883         3.72975         6.01827
     2006.52157        -7.61406         5.89252
     2006.52430        -5.38888         6.00230
     2006.52704        -3.81669         6.03125
     2006.52978         1.29750         5.95839
     2006.53252        -3.22431         5.92845
     2006.53525        -2.80112         5.91647
     2006.53799         4.49607         5.87555
     2006.54073        -2.44774         6.23984
     2006.54347         5.37845         5.81168
     2006.54621        -1.79837         5.80868
     2006.54894        -5.50218         5.70389
     2006.55168        -3.28099         5.71786
     2006.55442        -4.45380         5.82465
     2006.55716        -8.09661         5.86757
     2006.55990        -4.27642         5.78273
     2006.56263        -6.59923         5.80569
     2006.56537         1.55396         5.75778
     2006.56787        -3.95296         6.26879
     2007.05271        -3.98746         5.75978
     2007.05545        -1.76927         5.55318
     2007.05818        -8.04408         5.58013
     2007.06092        -6.61989         5.65997
     2007.06366        -9.08470         5.59310
     2007.06640        -5.82851         5.63003
     2007.06914        -5.11732         5.50627
     2007.07187         1.40486         5.51426
     2007.07461        -1.87495         5.50128
     2007.07735        -5.04576         5.52823
     2007.08009        -1.17557         5.55617
     2007.08282         1.24762         5.50428
     2007.08556        -0.06819         5.64001
     2007.08830        -1.11000         5.60707
     2007.09104        -3.45481         5.67095
     2007.09378        -1.86263         5.54021
     2007.09651        -4.47944         5.51725
     2007.09925        -4.33925         5.55617
     2007.10199        -2.29806         5.54819
     2007.10473        -1.31987         5.66596
     2007.10747        -4.05868         5.72285
     2007.11020        -9.35749         5.53721
     2007.11294        -7.56730         5.71886
     2007.11568        -8.44912         5.51925
     2007.11842        -2.54893         5.52823
     2007.12115        -2.16274         5.51825
     2007.12389        -9.14455         5.56615
     2007.12663        -7.74136         5.58911
     2007.12937        -4.97217         5.72185
     2007.13211        -0.79198         5.57614
     2007.13484         2.78821         5.59410
     2007.13758         4.18139         5.61406
     2007.14032         7.81058         5.70289
     2007.14306         2.94077         5.64600
     2007.14580         3.26896         5.61007
     2007.14853        -1.73785         5.56915
     2007.15127        -0.69566         5.64300
     2007.15401        -3.22047         5.60109
     2007.15675         1.53971         5.62005
     2007.15948         6.85890         5.57414
     2007.16222         7.56709         5.76078
     2007.16496        -0.81672         5.77974
     2007.16770        -2.62453         5.69291
     2007.17044        -5.58234         5.72085
     2007.17317         1.42885         5.74381
     2007.17591        -2.17596         5.73383
     2007.17865         4.99822         5.73383
     2007.18139         5.92541         5.77275
     2007.18413        -2.99640         5.73682
     2007.18686         1.87279         5.91048
     2007.18960        -0.72702         5.76277
     2007.19234        -2.24883         5.79770
     2007.19508        -4.35164         5.64300
     2007.72074         2.18559         5.72085
     2007.72348         4.25678         5.80768
     2007.72622         3.81396         5.75579
     2007.72896         5.70515         5.70588
     2007.73170         0.48334         5.74580
     2007.73443         0.43653         5.67794
     2007.73717         2.26872         5.84361
     2007.73991         7.68491         5.74880
     2007.74265        12.36910         5.75978
     2007.74538         5.70629         5.73483
     2007.74812         2.34647         5.89651
     2007.75086         4.49566         5.99831
     2007.75360         6.66285         5.93943
     2007.75634         5.36904         5.89851
     2007.75907         8.34623         5.74381
     2007.76181         3.37142         5.67295
     2007.76455         0.85461         5.69291
     2007.76729         1.22080         6.09712
     2007.77003         6.56298         6.12806
     2007.77276         4.73117         6.00829
     2007.77550         3.24136         5.67394
     2007.77824         8.93955         5.75978
     2007.78098         9.33474         5.68892
     2007.78371         3.11193         5.73882
     2007.78645         9.42012         5.63103
     2007.78919         6.97330         5.70788
     2007.79193        17.24449         5.78672
     2007.79467         9.08868         5.84461
     2007.79740        16.47487         5.87954
     2007.80014         5.70106         5.83463
     2007.80288         1.32425         5.69890
     2007.80562        -0.05856         5.66396
     2007.80836        -0.14737         5.80669
     2007.81109         4.12881         5.86358
     2007.81383         9.75200         5.81068
     2007.81657        -0.82081         5.89052
     2007.81931        -0.96162         5.76676
     2007.82204        -4.39543         5.78473
     2007.82478        -2.16624         5.85060
     2007.82752        -6.87305         5.85659
     2007.83026       -12.86586         5.81467
     2007.83300         1.88132         5.64800
     2007.83573        -3.45849         5.65099
     2007.83847        -1.39030         5.65698
     2007.84121         1.81589         5.67594
     2007.84395        -3.82292         5.65997
     2007.84669        -7.39373         5.67694
     2007.84942        -4.97354         5.61606
     2007.85216        -0.62236         5.75379
     2007.85490        -0.94617         5.81866
     2007.85764         0.73802         5.70488
     2007.86037        -3.40379         5.61606
     2007.86311         2.67640         5.67594
     2007.86585         4.55559         5.67394
     2008.53662        -4.16218         5.79172
     2008.53936        -5.36099         5.72485
     2008.54210        -3.76680         5.72684
     2008.54484        -1.36461         5.82265
     2008.54757        -0.86043         5.77275
     2008.55031        -0.56524         5.66696
     2008.55305        -7.06305         5.84860
     2008.55579         1.47514         5.77774
     2008.55853        -4.29367         5.68991
     2008.56126        -9.80848         5.69590
     2008.56400        -3.61929         5.63702
     2008.56674        -3.23410         5.65897
     2008.56948        -1.54592         5.64899
     2008.57222         1.76327         5.76177
     2008.57495         0.91346         5.86857
     2008.57769        -2.06735         5.80070
     2008.58043        -3.80216         5.65199
     2008.58317        -4.30297         5.63302
     2008.58590        -3.21578         5.62205
     2008.58864        -7.93059         5.85958
     2008.59138        -3.52941         5.59809
     2008.59412        -1.66622         5.66895
     2008.59686        -7.82603         5.74780
     2008.59959         1.98016         5.85559
     2008.60233        -3.85665         5.94142
     2008.60507         0.37554         5.73882
     2008.60781        -8.14127         5.76776
     2008.61049        -8.01611         5.81467
     2009.92471        -2.07451         5.65997
     2009.92745        -1.61432         5.64500
     2009.93019        -0.78813         5.77774
     2009.93293         3.40306         5.71287
     2009.93567         1.43425         5.77774
     2009.93840         0.88644         5.95540
     2009.94114         1.92162         5.69590
     2009.94388        -1.66519         5.78972
     2009.94662         2.44800         5.78473
     2009.94935        -1.98981         5.67794
     2009.95209        -6.56562         5.65099
     2009.95483        -8.15043         5.66496
     2009.95757        -7.98124         6.04123
     2009.96031        -6.20806         6.05720
     2009.96304        -7.59187         5.63203
     2009.96578        -7.57068         5.76078
     2009.96852        -9.13549         5.71886
     2009.97126        -1.68730         5.71387
     2009.97400        -0.26311         5.74081
     2009.97673        -4.11192         5.65099
     2009.97947        -6.94573         5.61805
     2009.98221        -6.75955         5.62803
     2009.98495        -3.49736         5.66496
     2009.98768        -2.01917         5.59310
     2009.99042        -1.32798         5.59610
     2009.99316        -2.50279         5.61107
     2009.99590        -5.79360         5.64500
     2009.99864        -5.74141         5.68592
     2010.00411        -5.22604         5.61905
     2010.00685        -6.19785         5.61406
     2010.00959        -4.33266         5.68692
     2010.01233        -7.63347         5.65897
     2010.01506        -7.14128         5.63502
     2010.01780        -3.01709         5.60707
     2010.02054        -3.44090         5.67794
     2010.02328       -10.17372         5.62005
     2010.02601       -10.72353         5.62803
     2010.02875        -8.41834         5.63402
     2010.03149         0.34185         5.65698
     2010.03423        -3.07196         5.76477
     2010.03697        -3.82177         5.91547
     2010.03970        -2.37558         5.75079
     2010.04244         1.68861         5.63103
     2010.04518         4.73979         5.63003
     2010.04792         9.16598         5.64700
     2010.05065         1.15617         5.75479
     2010.05339         2.25236         5.83962
     2010.05613         5.14955         5.75279
     2010.05887         7.60974         5.62404
     2010.06161         0.84793         5.65199
     2010.06434        -3.58388         5.65099
     2010.06708        -5.19970         5.64300
     2010.06982        -9.21751         5.68193
     2011.92882         1.18962         5.69490
     2011.93156         5.68081         5.64300
     2011.93430         5.10600         5.64500
     2011.93703         5.04019         5.65498
     2011.93977         2.74438         5.68492
     2011.94251         7.91256         5.66396
     2011.94525         8.55875         5.66097
     2011.94799         9.51994         5.60807
     2011.95072         9.38813         5.58013
     2011.95346         5.19232         5.67694
     2011.95620         6.15151         5.73483
     2011.95894         7.52970         5.48831
     2011.96167         8.62289         5.46635
     2011.96441         8.57007         5.54520
     2011.96715         8.87826         5.48132
     2011.96989        14.19645         5.47833
     2011.97263         7.20064         5.46835
     2011.97536         5.79083         5.46635
     2011.97810         4.25302         5.46635
     2011.98084         5.12721         5.49030
     2011.98358         9.96639         5.44439
     2011.98632         5.76558         5.48631
     2011.98905         8.53377         5.58013
     2013.61534         6.29786         5.69291
     2013.61807         7.16805         5.56316
     2013.62081         5.29524         5.54320
     2013.62355         5.20843         5.51725
     2013.62629         5.48862         5.56815
     2013.62903         2.64580         5.54919
     2013.63176         4.94199         5.50328
     2013.63450         7.47418         5.67494
     2013.63724        -0.24363         5.59111
     2013.64272         1.91275         5.54619
     2013.64545        13.82894         6.16998
     2013.65914         8.42188         6.89956
     2013.66188        10.40007         6.47838
     2015.54005        -0.34348         5.70289
     2015.54278        -3.56529         5.77275
     2015.54552         4.80190         5.72285
     2015.54826         1.19908         5.66995
     2015.55100         1.11827         5.68792
     2015.55374         9.06546         5.73682
     2015.55647        14.54865         5.79671
     2015.55921         0.31884         5.71087
     2015.56195         5.04303         5.68093
     2015.56469         2.38522         5.69291
     2015.56742         3.36240         5.75678
     2015.57016         0.24559         5.85260
     2015.57290        -0.31622         5.85060
     2015.57564         1.65597         5.64999
     2015.57838        -2.09984         5.63801
     2015.58111        -0.02565         5.74381
     2015.58385         0.86654         5.69291
     2015.58659         6.80573         5.92845
     2015.58933        -1.07009         5.77674
     2015.59206         3.12410         5.82265
     2015.59480         7.65129         5.72684
     2015.59754         7.17948         5.77974
     2015.60028         5.19567         5.80269
     2015.60302         3.74686         5.96737
     2015.60575         3.18205         5.78672
     2015.60849         0.66924         5.66496
     2015.61123        -0.83658         5.68792
     2015.61397         3.32261         5.74181
     2015.61671         4.41380         5.71287
     2015.61944         4.57699         5.60508
     2015.62218         3.57018         5.54919
     2015.62492         7.74237         5.57114
     2015.62766         4.64456         5.53422
     2015.63039         6.54474         5.62404
     2015.63313         8.25293         5.60807
     2015.63587        10.51812         5.64600
     2015.63861         4.17131         5.64700
     2015.64135         4.85750         5.60608
     2015.64408         2.44369         5.61107
     2015.64682         1.57288         5.74281
     2015.64956         5.36307         5.61406
     2015.65230         1.49525         5.62304
     2015.65504         8.10144         5.60608
     2015.65777         5.00063         5.87755
     2015.66051        11.66382         5.75479
     2015.66325         7.21201         5.56516
     2015.66599         8.06220         5.70089
     2015.66872         8.82539         5.73183
     2015.67146        15.38858         5.58512
     2015.67420         3.40376         5.62105
     2015.67694         6.99995         5.64400
     2015.67968         7.13314         5.58113
     2015.68241         4.09633         5.55019
     2015.68515         3.28352         5.57015
     2015.68789         5.72271         5.59310
     2015.69063         5.36890         5.58911
     2015.69337         8.14009         5.76776
     2015.69610         6.36127         5.59610
     2015.69884         8.41446         5.63502
     2015.70158        11.58165         5.66097
     2015.70432        16.50584         5.65398
     2015.70705        18.96803         5.60009
     2015.70979         7.50022         5.61406
     2015.71253         3.01741         5.56017
     2015.71527         5.22359         5.59510
     2015.71801         9.36278         5.58412
     2015.72074         9.03697         5.57214
     2015.72348         7.94316         5.56516
     2015.72622         1.30535         5.58612
     2015.72896        -1.47846         5.60208
     2015.73170         5.43873         5.60009
     2015.73443         8.39592         5.59310
     2015.73717         4.98510         5.61007
     2015.73991         8.78529         5.76177
     2015.74265         1.41848         5.76277
     2015.74538         4.53767         5.90050
     2015.74812        -5.70814         5.82765
     2015.75086       -10.57395         5.62803
     2015.75360        -0.48576         5.66097
     2015.75634         9.84343         5.64400
     2017.91650         2.00231         5.54520
     2017.91924         5.33650         5.55617
     2017.92198         2.03869         5.51525
     2017.92471         0.54188         5.44539
     2017.92745        -3.53893         5.54819
     2017.93019        -4.44875         5.69989
     2017.93293         0.01144         5.69291
     2017.93567        -2.55737         5.48731
     2017.93840        -1.24918         5.72085
     2017.94114        -2.96199         5.82765
     2017.94388         3.27620         5.63203
     2017.94662         0.17539         5.48631
     2017.94935         1.43157         5.56416
     2017.95209        -0.19324         5.76577
     2017.95483        -1.42805         5.89851
     2017.95757         2.80614         5.94442
     2017.96031         4.14133         5.50328
     2017.96304         0.55252         5.44938
     2017.96578         5.88971         5.71686
     2017.96852         2.90590         5.72684
     2017.97126        -1.97592         5.70788
     2017.97400        -0.75673         5.52024
     2017.97673         0.07146         5.60508
     2017.97947         0.87665         5.45337
     2017.98221        -3.95916         5.81068
     2017.98495        -5.98597         5.64400
     2017.98768        -8.45578         5.53422
     2017.99042        -3.71359         5.76078
     2017.99316        -2.62641         5.49629
     2017.99590         3.38078         5.51925
     2017.99864        -2.79103         5.92246
     2018.00137        -5.02784         5.61207
     2018.00411        -7.83065         5.47633
     2018.00685        -5.58146         5.63203
     2018.00959        -6.22027         5.64001
     2018.01233        -7.36809         5.69191
     2018.01506         1.49810         5.67893
     2018.01780         0.01429         5.92645
     2018.02054         0.60448         5.55019
     2018.02328         1.74367         5.56216
     2018.02601        -1.80314         5.84960
     2018.02875        -5.21595         5.82964
     2018.03149       -10.13576         6.30671
     2018.03423        -5.12858         6.07217
     2018.03697        -7.76839         6.03524
     2018.03970        -6.63520         5.73283
     2018.04244       -11.71001         5.91148
     2018.04518        -9.89182         5.55118
     2018.04792        -1.05063         5.83563
     2018.05065         2.22956         5.58512
     2018.05339         0.80075         5.73982
     2018.05613        -4.64907         5.47633
     2018.05887        -5.32188         5.52923
     2018.06161        -3.56369         5.75379
     2018.06434         3.28050         5.70089
     2018.06708         6.03469         5.79571
     2018.06982        -3.90112         5.72185
     2018.07256        -7.26793         5.65598
     2018.07530       -16.24274         6.10011
     2018.07803       -10.20756         5.62205
     2018.08077        -6.50437         6.04921
     2018.08351        -5.97418         5.97436
     2018.08625        -5.56299         5.59011
     2018.08898        -8.43280         5.90749
     2018.09172        -8.36561         5.91248
     2018.09446        -3.04942         5.68991
     2018.09720         1.09476         5.82465
     2018.09994        -6.13705         5.58212
     2018.10267        -9.27986         5.59709
     2018.10541        -7.33267         5.74181
     2018.10815        -2.33848         5.61506
     2018.11089         3.95671         5.62504
     2018.11363        -1.28010         5.58612
     2018.11636        -9.83291         5.63302
     2018.11910        -8.05473         6.46640
     2018.12184        -0.39354         5.70389
     2018.12458        -2.19435         5.84661
     2018.12731        -6.15616         5.60208
     2018.13005        -0.09397         5.67095
     2018.13279         7.87122         5.67594
     2018.13553         2.46141         5.64201
     2018.13827         1.27360         5.64101
     2018.14100        -1.76222         5.58711
     2018.14374        -3.35903         5.55717
     2018.14648        -7.58084         6.13604
     2018.14922         1.74035         5.76676
     2018.15196        -1.34046         5.54619
     2018.15469        -3.34927         5.60208
     2018.15743        -0.23408         6.11608
     2018.16017        -4.80790         5.70888
     2018.16291        -4.92171         5.83563
     2018.16564        -3.17352         5.77175
     2018.16838         0.01667         5.58312
     2018.17112        -1.68014         5.60009
     2018.17386        -6.59995         5.78972
     2018.17660        -4.52576         5.74780
     2018.17933        -3.36857         5.77575
     2018.18207         2.59061         5.90150
     2018.18481         0.23280         6.06718
     2018.18755        -1.09101         5.67694
     2018.19029        -5.64182         5.92645
     2018.19302         0.81837         5.58212
     2018.19576         3.18056         5.58911
     2018.19850         3.31575         5.61406
     2018.20124        10.57094         5.65897
     2018.20397        -5.63888         5.63801
     2018.20671         5.74131         6.01029
     2018.20945         5.45350         6.13305
     2018.21219         2.46169         5.54520
     2018.21493        -9.59012         5.68492
     2018.21766        -2.45893         5.76776
     2018.22040        -5.40074         5.49529
     2018.22314         2.28544         5.91348
     2018.22588         1.84763         5.51925
     2018.22862         0.09882         5.60308
     2018.23135        -4.23999         5.56516
     2018.23409        -3.42780         5.58711
     2018.23683        -2.32161         5.45836
     2018.23957        -2.24242         5.49130
     2018.24230        -3.62323         5.45637
     2018.24504        -6.70305         5.44639
     2018.24778        -1.81886         5.54120
     2018.25052         1.97933         5.58711
     2018.25326        -6.50348         5.48831
     2018.25599        -5.54529         5.52823
     2018.25873        -5.28910         5.54220
     2018.26147       -13.00091         5.55019
     2018.26421        -6.74672         5.52723
     2018.26695        -9.18654         5.63602
     2018.26968        -8.35335         5.43042
     2018.27242        -5.74416         5.48531
     2018.27516         1.12003         5.57813
     2018.27790        11.16322         5.64800
     2018.28063        -7.18759         5.51126
     2018.28337        -5.76440         5.44739
     2018.28611        -4.93921         5.49829
     2018.28885         8.67997         5.49928
     2018.29159         3.81916         5.59210
     2018.29432         1.19835         5.55617
     2018.29706        -7.22546         5.38950
     2018.29980        -5.69127         5.50627
     2018.30254        -5.82708         5.44639
     2018.30528        -0.64989         5.51326
     2018.30801        -1.98471         5.37153
     2018.31075        -3.39652         5.44240
     2018.31349        -7.68933         5.42044
     2018.31623        -5.95414         5.37553
     2018.31896         0.36105         5.67394
     2018.32170         0.25524         5.47932
     2018.32444         6.70843         5.46835
     2018.32718        -6.30338         5.44240
     2018.32992         0.32280         5.54420
     2018.33265         0.69799         5.40447
     2018.33539        -6.02282         5.56216
     2018.33813        -3.00363         5.60308
     2018.34087        -1.59244         5.43840
     2018.34361         1.63575         5.41645
     2018.34634        -6.19606         5.59809
     2018.34908        -2.29287         5.53022
     2018.35182        -1.35569         5.52224
