# ================= DQRFIT RESULTS ================
# INPUT FILE: series/TMBU.rad
# OUTPUT: LDETRENDED
# FILTER FUNCTION: f(t)
# f(t)=+line(t)+annual(t)
# line(t)=+P 1+P 2*t
# annual(t)=+P 3*sin(2*pi*t+P 4)
# heav(t)=(t<0?0:1)
# TOTAL OBSERVATIONS MTOT= 3622
# INITIAL TIME INTERVAL= 2022.7488 - 2011.7481 = 11.0007
# TOTAL OBSERVATIONS AFTER PREFILTER M= 3618
# TIME-SPAN= 2022.7488 - 2011.7481 = 11.0007
# OBSERVATIONS: USED M=  3618 REJECTED MTOT-M=     4 %USED=   99.8896
# N=  4 PARAMETERS
# MAXSIG= 175.00000
# MAXRES=  23.76651
# SCALE FACTOR FOR LENGTHS: SCL=  10.00000
# SCALE FACTOR FOR SIGMAS: SCLSIG=   1.00000
# CHI^2=   4605.931 DOF=  3614 CHI^2/DOF=   1.27447
# RMS=      7.558 SDEV=      7.559 MEAN=   -0.02265
#  P #       PARAMETER +-    SIGMA %error PARAMETER NAME
# P 1 =      1672.25992 +-   73.782   4.41 YZERO                              
# P 2 =        -0.82922 +-    0.037   4.41 SLOPE                              
# P 3 =         5.40020 +-    0.173   3.21 ANNUAL AMPLITUDE                   
# P 4 =        -3.00401 +-    0.045   1.50 ANNUAL PHASE                       
#       T            LDETRENDED       SIG_OBS
     2011.74811        -4.18463         7.05690
     2011.75085         5.53964         7.33800
     2011.75359         0.79391         7.05916
     2011.75633        -0.74882         7.04900
     2011.75906         8.87345         6.99707
     2011.76180         1.10072         6.91353
     2011.76454        -4.54601         7.07722
     2011.76728        -4.14274         7.14383
     2011.77002        -2.33447         7.15963
     2011.77275        13.12380         7.42832
     2011.77549         5.61507         7.43848
     2011.77823       -15.13566         7.24318
     2011.78097        -0.52839         7.19576
     2011.78371         2.13288         7.36171
     2011.78644         1.76015         7.26914
     2011.78918         2.24942         7.11561
     2011.79192        -1.04931         7.26124
     2011.79466       -10.90204         7.06481
     2011.79739        10.51023         7.46557
     2011.80013         6.95750         7.23753
     2011.80287        -1.45623         6.96998
     2011.80561        -7.26195         7.08851
     2011.80835         4.39032         7.02303
     2011.81108         1.00759         7.16641
     2011.81382        -3.54914         7.27027
     2011.81656         0.79413         7.00836
     2011.81930        -1.18360         7.02303
     2011.82203         4.08667         6.84015
     2011.82477        -0.97106         7.30865
     2011.82751        -9.60879         7.33688
     2011.83025         4.61448         7.20592
     2011.83299        -4.69025         6.94627
     2011.83572         1.13302         7.06706
     2011.83846         7.39929         7.04110
     2011.84090         6.80231         7.77377
     2011.84394        -1.31217         6.75096
     2011.84668        -9.30190         6.92482
     2011.84941        -9.07463         6.92708
     2011.85215        -0.63736         7.10319
     2011.85489         1.14591         7.11674
     2011.85763        -1.08382         7.06593
     2011.86036        -0.40355         6.94627
     2011.86310         0.28072         6.99030
     2011.86584         1.95899         6.97675
     2011.86858        10.76626         6.96885
     2011.87132         7.45153         7.01400
     2011.87405        -7.11420         7.01175
     2011.87679         5.91307         7.07609
     2011.87953         2.38034         6.96885
     2011.88227       -11.65839         6.99594
     2011.88501         2.48588         6.94853
     2011.88774        -6.66185         7.08174
     2011.89048        -5.92458         7.06255
     2011.89322         1.32569         7.14609
     2011.89596        -0.56804         7.02191
     2011.89869        -3.15577         7.06819
     2011.90143         3.26451         7.09303
     2011.90417         4.03578         7.16189
     2011.90691        -3.77695         6.94853
     2011.90965         2.01532         7.11222
     2011.91238        -5.35541         7.22737
     2011.91512        -0.68514         6.97675
     2011.91786        10.27913         7.28269
     2011.92060        -6.81960         6.87966
     2011.92240        -3.63111        13.65433
     2011.92607        -3.33106         7.19237
     2011.92881         1.49621         7.34478
     2011.93155         6.57648         7.12125
     2011.93429        -1.11325         7.24318
     2011.93702        -0.04498         7.09867
     2011.93976         3.28129         6.95982
     2011.94250         4.66456         7.05577
     2011.94524        14.07683         6.83112
     2011.94798         8.80410         6.86724
     2011.95071         4.70637         7.02529
     2011.95345        -3.67836         7.13819
     2011.95619        -1.50909         7.09190
     2011.95893         7.37518         7.03207
     2011.96167         8.01545         6.88644
     2011.96440         2.49372         6.95869
     2011.96714        -3.11401         7.09416
     2011.96988         4.04626         6.74758
     2011.97262         3.16153         6.72839
     2011.97535        -0.95220         7.03432
     2011.97809         0.74807         7.14947
     2011.98083        -3.66666         7.16867
     2011.98357         8.02461         6.93272
     2011.98631         4.54488         6.81418
     2011.98904        -1.88185         7.42380
     2011.99178        10.81842         7.38090
     2011.99452        12.15469         7.37752
     2011.99726        -1.00903         6.97110
     2012.00273         6.62951         7.16189
     2012.00547        -1.56222         7.04900
     2012.00821         2.91705         7.18334
     2012.01095         6.98932         7.06932
     2012.01368         7.14859         6.97675
     2012.01642         5.88886         6.87289
     2012.01916         3.88113         7.07158
     2012.02190         7.13440         7.21947
     2012.02464        11.14967         6.93611
     2012.02737         6.93094         6.95756
     2012.03011         4.60721         6.82096
     2012.03285         1.98148         7.17544
     2012.03559         0.10175         6.94514
     2012.03833         7.68402         6.75548
     2012.04106         6.28629         6.79499
     2012.04380         6.51556         6.75661
     2012.04654         0.68083         6.94853
     2012.04928         9.47610         7.15286
     2012.05201        -2.99663         7.19012
     2012.05475         6.74164         7.48589
     2012.05749         4.02991         7.31656
     2012.06023        -2.48682         7.42154
     2012.06297        -7.47455         7.30301
     2012.06570       -10.95728         7.19124
     2012.06844       -10.17601         7.29398
     2012.07118        -2.43074         6.83902
     2012.07392         0.13453         7.01739
     2012.07666        -1.69520         7.17431
     2012.07939         8.43607         7.05013
     2012.08213        -0.38966         7.05803
     2012.08487         5.94561         7.04110
     2012.08761         1.24488         6.98352
     2012.09034        -4.37585         6.90450
     2012.09308         0.41543         6.98014
     2012.09582         5.20970         6.92821
     2012.09856         6.60997         7.07384
     2012.10130         3.27724         7.03320
     2012.10403        -5.05349         7.13480
     2012.10677        -9.10722         7.52992
     2012.10951         6.54605         7.31317
     2012.11225        -3.09668         7.38655
     2012.11498         2.12759         7.01965
     2012.11772         2.91686         7.06593
     2012.12046         9.23413         7.02642
     2012.12320         0.13640         6.87515
     2012.12594         3.07667         6.88418
     2012.12867         3.52994         7.20366
     2012.13141        -4.77379         6.92821
     2012.13415         9.03048         6.76677
     2012.13689       -11.42725         6.97449
     2012.13963        -5.55698         7.47009
     2012.14236       -14.37171         7.71394
     2012.14510         3.52356         7.03658
     2012.14784        -3.31517         7.32897
     2012.15058        -2.94090         6.87853
     2012.15331         0.69237         6.80628
     2012.15605        -1.65836         6.90224
     2012.15879        -4.97609         6.86273
     2012.16153         5.31718         6.83563
     2012.16427        -6.07755         7.03094
     2012.16700        -2.72628         7.12577
     2012.16974        -2.30501         7.27591
     2012.17248         1.00926         7.12464
     2012.17522         1.11753         7.03658
     2012.17796        -1.09020         6.97788
     2012.18069         1.70107         6.90224
     2012.18343       -13.79066         7.14496
     2012.18617        -7.74239         7.00046
     2012.18891         1.42889         7.19124
     2012.19164         4.57016         7.09190
     2012.19438        -0.97657         7.00836
     2012.19712        -3.42030         6.96207
     2012.19986       -12.15303         6.96320
     2012.20260        -1.02376         7.23866
     2012.20533        -1.19949         7.30527
     2012.20807        -0.11122         7.09303
     2012.21081         5.84505         6.99481
     2012.21355         1.75732         6.78370
     2012.21629       -17.38341         6.98578
     2012.21902       -11.06414         7.29398
     2012.22176        -5.76187         7.14496
     2012.22450       -10.12060         6.89434
     2012.22724        -0.22633         7.15399
     2012.22997        -3.03906         7.16189
     2012.23271         0.22921         7.10996
     2012.23545         5.60248         6.91579
     2012.23819        -8.53625         7.11448
     2012.24093         4.24102         7.06368
     2012.24366        -4.06471         7.17883
     2012.24640         4.32556         7.51186
     2012.24914         0.09083         7.17431
     2012.25136        -9.32533         8.57192
     2012.25462       -12.73963         7.32220
     2012.25735        -6.20236         6.98352
     2012.26009        -9.21809         6.89885
     2012.26283       -11.02982         6.82886
     2012.26557       -10.28655         7.23753
     2012.26830        -4.52828         7.14947
     2012.27104       -12.34901         7.34026
     2012.27378        -1.75874         7.11448
     2012.27652        -5.40347         7.35042
     2012.27926        -4.54020         7.23979
     2012.28199        -1.83393         7.17205
     2012.28473         2.95235         7.09641
     2012.28747        -5.02638         7.09641
     2012.29021       -16.25711         7.29736
     2012.29295       -15.40984         7.24882
     2012.29568       -10.13957         7.41138
     2012.29842        -9.95830         7.28269
     2012.30116        -5.83403         7.41477
     2012.30390        -9.45776         7.19463
     2012.30663       -10.33649         7.01175
     2012.30937        -9.15722         7.11222
     2012.31211         7.85805         7.53444
     2012.31485        -6.03368         7.30865
     2012.31759        -7.92241         7.81102
     2012.32032        -5.99414         7.11109
     2012.32306       -11.75187         7.12012
     2012.32522       -16.66708         9.55521
     2012.32854        -4.63533         7.13931
     2012.33128        -1.82506         6.98014
     2012.33401         0.43121         6.92143
     2012.33675        -1.72852         7.21269
     2012.33949        -8.40425         6.87402
     2012.34223       -12.68398         6.89998
     2012.34496        -8.06371         6.99255
     2012.34770       -10.05444         7.11109
     2012.35044       -13.41017         6.99368
     2012.35318        -5.02790         7.20705
     2012.35592        -7.15363         6.83112
     2012.35865        -3.03736         7.00271
     2012.36139       -11.62909         7.01739
     2012.36413       -11.11382         7.02416
     2012.36687        -8.22855         6.99933
     2012.36961       -16.09928         7.00723
     2012.37234         1.20199         7.13028
     2012.37508         3.80426         7.05803
     2012.37782        -4.36647         6.95869
     2012.38056        -6.90219         6.97223
     2012.38329        -8.84592         6.95982
     2012.38603       -12.06265         7.15173
     2012.38877       -15.60538         7.40574
     2012.39150        -1.05912         7.12690
     2012.39425        -0.20484         6.99933
     2012.39698       -17.82557         7.34139
     2012.39972       -13.20530         7.18560
     2012.40241        -8.74907         7.41929
     2012.40520        -8.92876         7.29736
     2012.40794       -11.61649         7.01062
     2012.40979        -7.46095        13.15083
     2012.41341       -13.72495         7.30752
     2012.41615        -5.66068         7.25108
     2012.41889        -6.76641         7.64959
     2012.42162         0.15986         7.37187
     2012.42436        -4.91687         7.62701
     2012.42704        -8.34565         7.35607
     2012.42984        -5.64233         7.07045
     2012.43258       -11.10206         7.36171
     2012.43531       -14.50379         7.37300
     2012.43683        -1.92553        26.76227
     2012.44079       -12.61125         7.23076
     2012.44353       -10.87098         7.30414
     2012.44626        -3.52071         7.29398
     2012.44900         0.74356         7.45428
     2012.45174        -2.95617         7.23979
     2012.45448        -6.43790         7.27817
     2012.45722        -5.82963         7.31656
     2012.45995        -6.89336         7.44638
     2012.46269        -4.81509         7.29849
     2012.46543        -4.83582         7.13141
     2012.46817        -7.37955         7.10093
     2012.47091        -9.22628         7.26237
     2012.47364        -7.03601         7.35155
     2012.47638       -15.29073         7.47799
     2012.47912       -11.77246         7.30865
     2012.48186        -1.25219         7.42719
     2012.48459        -9.15792         7.36961
     2012.48733       -11.63365         7.16076
     2012.49007        -5.89538         7.43171
     2012.49281        -2.21711         7.25559
     2012.49555       -16.33184         7.29398
     2012.49828        -2.96757         7.13028
     2012.50102        -5.18830         7.14722
     2012.50376        -2.93103         7.18786
     2012.50650        -4.03676         7.09867
     2012.50924       -11.75549         7.24769
     2012.51145        -8.24366         9.57102
     2012.51471        -6.41895         7.10319
     2012.51745        -4.47768         7.23189
     2012.52019        -4.31541         7.27366
     2012.52292        -9.41414         7.37187
     2012.52566        -4.69287         7.28156
     2012.52728         6.92247        20.51932
     2012.53114         6.45267         7.32446
     2012.53388         0.30794         7.32446
     2012.53661        -8.76579         7.32784
     2012.53935         4.06348         7.54573
     2012.54209        -0.91825         7.19576
     2012.54483        -4.81298         7.30527
     2012.54736        -4.79088         7.82570
     2012.55030        -8.38844         7.34704
     2012.55304        -6.86717         7.13141
     2012.55578        -6.16690         7.32784
     2012.55852       -15.92963         7.06255
     2012.56125        -5.08136         7.26801
     2012.56399        -0.56509         7.27253
     2012.56673         0.39918         7.27930
     2012.56947         5.35945         7.42832
     2012.57221         4.75373         7.27817
     2012.57494        -3.70200         7.21269
     2012.57768        -3.49473         7.23414
     2012.58042         3.58554         7.38542
     2012.58316        -9.91519         7.30752
     2012.58590         0.20008         7.63604
     2012.58775         2.75362        12.44751
     2012.59137        -1.98538         7.10545
     2012.59411         1.73289         7.22511
     2012.59685         1.14716         7.49718
     2012.59958         4.68443         7.26124
     2012.60232         8.23170         7.48025
     2012.60506         4.94197         7.28833
     2012.60780         3.03824         7.32220
     2012.61054         3.48951         7.17544
     2012.61327         0.50378         7.27817
     2012.61527         6.50343        11.70130
     2012.61875         8.02332         7.25221
     2012.62149        11.49859         7.52879
     2012.62423         6.64286         7.21947
     2012.62696         1.96913         7.13367
     2012.62970         2.13140         7.50621
     2012.63244         0.45767         7.40235
     2012.63518         8.65294         7.40687
     2012.63791         2.46821         7.38994
     2012.64065         8.95948         7.20705
     2012.64339         2.92975         7.17431
     2012.64613         5.35202         7.12238
     2012.64827         5.49080         9.60037
     2012.65160         4.68956         7.18108
     2012.65434         0.94283         7.23301
     2012.65708        10.61910         7.29962
     2012.65982         0.56037         7.10206
     2012.66256         5.31864         6.91579
     2012.66529         7.92991         7.18899
     2012.66803         5.41819         7.28382
     2012.67077         4.14646         7.19237
     2012.67351        -1.09427         6.99030
     2012.67624         3.83800         7.10883
     2012.67898         6.48527         7.12802
     2012.68172         1.89754         7.17883
     2012.68446         3.45781         7.10658
     2012.68720         4.93608         7.25446
     2012.68993         4.83135         7.20479
     2012.69267         2.57662         7.33688
     2012.69541        -2.36811         7.01626
     2012.69815         1.71516         7.18560
     2012.70089         1.99543         7.21157
     2012.70362         5.59070         7.05916
     2012.70636         6.76997         7.37752
     2012.70910         3.26624         7.07835
     2012.71184        -1.76349         7.16867
     2012.71457         6.83678         7.11448
     2012.71731        11.93205         6.97901
     2012.72005        14.03232         7.03094
     2012.72279         9.94959         7.28946
     2012.72553         8.82186         7.35607
     2012.72826        13.31313         7.42606
     2012.73100         9.29740         7.36171
     2012.73374        15.14867         7.34252
     2012.73648        10.21794         7.16754
     2012.73921         0.97721         7.20479
     2012.74195         7.84148         7.42042
     2012.74469        11.86375         7.20028
     2012.74743        10.66302         7.18673
     2012.75017         6.56629         7.18334
     2012.75290         3.83956         7.14044
     2012.75564        10.72383         7.12464
     2012.75838         2.35010         7.13254
     2012.76112         8.61637         7.17883
     2012.76386         6.07365         7.06255
     2012.76659         3.27392         7.12690
     2012.76933         6.80019         6.84466
     2012.77207        10.43546         7.15738
     2012.77481        10.32773         6.96772
     2012.77754         5.99600         6.93272
     2012.78028         7.08027         7.08513
     2012.78302        18.21554         7.06368
     2012.78576        -2.87819         6.90788
     2012.78850         6.47908         7.37639
     2012.79123        24.82735         7.64620
     2012.79397         3.22062         7.24543
     2012.79671         6.86189         7.45315
     2012.79945         0.37316         7.38768
     2012.80219        13.07343         7.57508
     2012.80492         4.78370         7.15963
     2012.80766        -6.26803         7.21834
     2012.81040         1.09024         7.01739
     2012.81314        -2.18449         6.98465
     2012.81587        -3.95922         6.99368
     2012.81861        -4.02595         7.35155
     2012.82135        -1.72668         7.21157
     2012.82409         1.77659         7.59540
     2012.82683        -5.37614         7.49380
     2012.82956        -4.18887         7.22963
     2012.83230         5.91640         7.30301
     2012.83504        10.83967         7.41590
     2012.83778        -4.50106         7.20366
     2012.84052         2.40521         7.32784
     2012.84325         5.42948         7.39219
     2012.84599        -7.19225         7.64846
     2012.84873        -0.63898         7.44074
     2012.85147         1.35129         7.23076
     2012.85420         3.09056         7.00836
     2012.85694       -13.71917         7.14722
     2012.85968        -7.94689         7.30414
     2012.86242         4.17338         7.12577
     2012.86516        -0.65735         7.16302
     2012.86789         0.62792         7.76700
     2012.87063         0.36019         7.35720
     2012.87337         1.83446         7.42154
     2012.87611        -1.00827         7.28720
     2012.87885         0.43900         7.43509
     2012.88158         0.80927         7.15512
     2012.88432         4.86154         7.20818
     2012.88706        -0.01819         7.44074
     2012.88980         3.06408         7.60443
     2012.89253        -6.28165         7.07384
     2012.89527        -2.78538         7.38429
     2012.89801        -4.36311         7.55927
     2012.90075         0.24916         7.52541
     2012.90349        -3.96557         7.23866
     2012.90622         3.31170         7.22963
     2012.90896        10.52097         7.57734
     2012.91170         3.65124         7.38316
     2012.91444         0.90251         7.83247
     2012.91718         3.71578         7.33349
     2012.91991        -1.29595         7.36284
     2012.92265        -4.15368         7.49944
     2012.92539         1.87759         7.60669
     2012.92813        -0.72914         7.58411
     2012.93086        -6.07187         7.43171
     2012.93360       -10.80260         6.98014
     2012.93634        -0.16533         7.06029
     2012.93908        -4.49706         7.05577
     2012.94182         9.74221         7.34365
     2012.94455         9.45448         7.22624
     2012.94729        -2.09125         7.17657
     2012.95003         5.02302         7.22285
     2012.95277        11.28829         6.71371
     2012.95551         9.56057         6.49018
     2012.96646        16.65865         6.66404
     2012.96919         5.30792         7.00046
     2012.98015         3.57200         7.13819
     2012.98288        -2.42373         6.95304
     2012.98562        -8.42546         7.22511
     2012.98836        -8.86519         7.19350
     2012.99110         1.19708         6.96546
     2012.99384         1.24435         7.00271
     2012.99931        -1.73411         7.00836
     2013.00205         3.50316         7.00384
     2013.00479        -0.56957         7.10545
     2013.00752        -0.21630         6.82434
     2013.01026        -7.64003         6.88644
     2013.01300         4.92424         6.93949
     2013.01574        -2.37449         6.97788
     2013.01848        -6.06422         7.10770
     2013.02121       -15.57895         7.08287
     2013.02395        -4.51368         7.20366
     2013.02669         0.32459         6.93949
     2013.02943         3.76586         6.68323
     2013.03216        -1.75287         6.72161
     2013.03490       -10.10260         6.77693
     2013.03764        -5.21733         7.01287
     2013.04038       -11.35006         6.93272
     2013.04312        -1.09279         7.55476
     2013.04585         1.10248         7.20028
     2013.06228        -5.71189         7.35042
     2013.06502         2.28238         7.52879
     2013.06776        -6.90135         7.44864
     2013.07049        -6.62808         7.37977
     2013.07323        -1.14081         6.84579
     2013.07597        -7.48154         6.84015
     2013.07871        -6.31227         6.91917
     2013.08145         3.74300         6.92933
     2013.08418        -4.72673         7.19124
     2013.08692        -4.32846         7.07948
     2013.08966       -10.29819         7.10883
     2013.09240         1.75408         7.21382
     2013.09514         1.26535         7.15512
     2013.09787         1.04262         7.50621
     2013.10061        -5.25511         7.25559
     2013.10335         2.50816         6.92708
     2013.10609        -4.59557         6.83450
     2013.10882        -3.17930         6.84354
     2013.11156       -11.11503         6.96320
     2013.11430        -8.24876         7.00723
     2013.11704        -7.79949         7.06932
     2013.11978         1.03178         7.36171
     2013.12251        -8.44695         7.07158
     2013.12525       -15.94968         7.08287
     2013.12799       -11.53241         6.95869
     2013.13073        -4.74914         6.72951
     2013.13347        -4.06987         7.18673
     2013.13620        -1.54160         6.77241
     2013.13894        -7.50133         6.80177
     2013.14442         0.98921         7.21834
     2013.14715        -2.95751         6.97336
     2013.14989        -9.37024         6.73742
     2013.15263       -14.11697         7.04110
     2013.15537       -14.32370         6.69452
     2013.15811       -14.97143         6.98578
     2013.16084       -19.36016         7.37752
     2013.16358        -6.22489         7.19802
     2013.16632        -2.36062         7.09754
     2013.16906       -13.41435         6.96320
     2013.17180        -0.68408         6.75322
     2013.17453        -9.03281         7.26011
     2013.17727        -3.96354         7.32897
     2013.18001        -9.02027         7.07609
     2013.18275        -1.51400         6.88869
     2013.18548        -3.41473         6.91127
     2013.18822       -13.64146         7.08513
     2013.19096        -9.03819         7.20818
     2013.19370         1.55908         7.06368
     2013.19644        -3.86165         7.16076
     2013.19917       -10.62438         7.29172
     2013.20191        -4.96411         7.17544
     2013.20465        -5.00584         7.19237
     2013.20739        -3.85657         7.13593
     2013.21013        -5.32630         7.01965
     2013.21286        -2.85203         7.15060
     2013.21560         2.15224         7.48364
     2013.21834        -9.02449         6.86386
     2013.22108       -10.48322         6.82096
     2013.22381        -5.09995         6.87176
     2013.22655        -2.05768         6.90111
     2013.22929        -9.23741         7.06932
     2013.23203       -13.03914         7.13480
     2013.23477        -3.93687         7.07497
     2013.23750       -10.48260         7.10206
     2013.24024       -10.38033         7.20253
     2013.24298        -7.06105         7.25334
     2013.24572         2.29122         7.14270
     2013.24846        -2.06451         7.18560
     2013.25119        -5.48224         7.26350
     2013.25393        -3.38697         7.06706
     2013.25667        -2.20670         7.50057
     2013.25941         2.48957         7.31768
     2013.26214        -5.53816         7.29962
     2013.26488         5.45511         7.26575
     2013.26762         4.11338         7.02755
     2013.27036        -6.32835         7.08400
     2013.27310        -4.90908         7.54573
     2013.27583        -5.46981         7.16528
     2013.27857         0.25346         7.31656
     2013.28131        -6.52927         7.07948
     2013.28405         0.03100         7.02303
     2013.28679        -0.25773         6.88531
     2013.28952        -0.73846         6.78032
     2013.29226        -9.04619         6.97562
     2013.29500        -5.89092         6.88756
     2013.29774       -15.98865         7.40913
     2013.30047        -5.09938         7.06255
     2013.30321        -3.67711         7.05916
     2013.30595        -7.54184         6.97336
     2013.30869        -5.95957         6.98014
     2013.31143        -9.47730         7.00723
     2013.31416        -1.21203         6.92482
     2013.31690        -2.34676         6.96998
     2013.31964        -5.05749         7.08513
     2013.32238        -5.91622         7.18334
     2013.32512        -6.32795         7.14496
     2013.32785         3.88332         6.98014
     2013.33059        -3.03041         6.84918
     2013.33333        -6.73614         7.02529
     2013.33607        -3.09887         7.07609
     2013.33880         1.81041         7.02981
     2013.34154         6.32068         6.99481
     2013.34428        -0.05005         7.08964
     2013.34702        -2.54578         7.24769
     2013.34976        -8.42351         7.19689
     2013.35249        -5.56024         7.23414
     2013.35523        -0.75897         7.59427
     2013.35797        -3.81470         7.31317
     2013.36071        -7.83943         7.12464
     2013.36344        -2.35516         7.32220
     2013.36618        -6.68589         7.24882
     2013.36892        -4.00662         7.20592
     2013.37166        -6.49635         7.22850
     2013.37440        -2.83508         7.30978
     2013.37713        -6.52481         7.10770
     2013.37987        -2.23354         7.36623
     2013.38261        -6.06027         7.22285
     2013.38535        -0.62700         7.50734
     2013.38809        -5.86073         6.96094
     2013.39082        -1.80746         6.92821
     2013.39356         0.59081         7.27253
     2013.39630        -5.07192         7.30527
     2013.39904         1.98135         7.54234
     2013.40177        -5.28238         7.34026
     2013.40451        -3.41311         7.47348
     2013.40725       -10.78484         7.46444
     2013.40999        -0.90057         7.39219
     2013.41273        -6.58230         7.25334
     2013.41546        -0.09003         7.62362
     2013.41820        -3.02976         7.42719
     2013.42094         2.33751         7.25334
     2013.42368        -4.77922         7.34139
     2013.42642        -1.59295         7.43961
     2013.42915         1.02232         7.41477
     2013.43189         2.31659         7.47799
     2013.43463        -2.16913         7.26688
     2013.43737        -6.06486         7.25898
     2013.44010        -9.21759         7.35833
     2013.44284         7.03268         7.56153
     2013.44558         4.12895         8.47935
     2013.44832         1.96222         8.14406
     2013.45106        -2.76251         7.95778
     2013.45379        -1.49424         7.98036
     2013.45653         6.24203         8.32243
     2013.45927         0.99830         8.10793
     2013.46201         6.59957         8.19599
     2013.46475         5.76684         7.97810
     2013.46748         1.69211         8.14631
     2013.47022         1.68038         8.06164
     2013.47296        -0.94035         8.07519
     2013.47570         1.79192         8.03794
     2013.47843        -3.74381         8.48951
     2013.48117         0.67846         8.32468
     2013.48391         4.64573         8.16212
     2013.48665        -7.58500         8.29759
     2013.49212         3.45454         8.53353
     2013.49486        -1.91919         8.42967
     2013.49760        11.13008         8.36307
     2013.50034         6.48635         8.39355
     2013.50308         7.51262         8.38565
     2013.50581         9.39589         8.09777
     2013.50855         2.56616         8.17454
     2013.51129        10.02743         8.13841
     2013.51403        18.43370         8.04697
     2013.51950         1.45524         8.10341
     2013.52498         4.62378         8.48048
     2013.52772         8.81305         8.04358
     2013.53045         4.64033         8.42177
     2013.53319         3.30060         8.33936
     2013.53593         5.92487         8.22195
     2013.53867         8.02514         8.22195
     2013.54141         4.48141         8.20953
     2013.54414        11.62168         8.25018
     2013.54688         1.94095         8.56966
     2013.54962        11.07922         8.44209
     2013.55236        12.78149         8.13954
     2013.55509         0.96976         8.44774
     2013.55783         3.89003         8.22985
     2013.56057         7.07830         8.38113
     2013.56331         9.22257         8.64191
     2013.56605         3.31184         8.40710
     2013.56878        13.53311         8.32356
     2013.57152         4.97938         8.29195
     2013.57426        11.20265         8.26259
     2013.57700        14.11192         8.57869
     2013.57974         9.84819         8.64417
     2013.58247        17.97646         8.59563
     2013.58521        13.40673         8.31339
     2013.58795        11.13500         8.51321
     2013.59069        12.84027         8.44661
     2013.59342         6.43654         8.61369
     2013.59616        13.08481         8.35968
     2013.59890         9.17608         8.61820
     2013.60164         7.98635         8.55160
     2013.60438         9.40762         8.39129
     2013.60711         9.62389         8.03342
     2013.60985         4.30816         8.36871
     2013.61259        -0.76157         8.19486
     2013.61533        21.96570         8.46015
     2013.61807        11.24397         8.40710
     2013.62080         9.10124         8.52337
     2013.62354        13.11951         8.43080
     2013.62628        11.82979         8.67804
     2013.62902        -0.14294         8.31227
     2013.63175         1.42833         8.22985
     2013.63449        14.46760         8.54482
     2013.63723        11.90187         8.19260
     2013.63997        14.26014         8.17341
     2013.64271         1.07041         8.32017
     2013.64544        12.80668         7.99843
     2013.64818        10.36295         8.18696
     2013.65092        10.55522         8.36645
     2013.65366         8.96049         8.33597
     2013.65639        11.06176         8.14406
     2013.65913        15.60003         8.25808
     2013.66187         0.84630         8.06729
     2013.66461        10.09857         8.21631
     2013.66735        20.42384         7.94424
     2013.67008        20.41211         8.04697
     2013.67282        15.97838         8.56627
     2013.67556         9.77865         8.11696
     2013.67830        11.36992         8.02552
     2013.68104        20.13719         8.03794
     2013.68377        12.65546         7.72410
     2013.68651        12.06973         8.13728
     2013.68925         5.49700         8.16438
     2013.69199        11.76927         8.03455
     2013.69746         9.89281         8.15309
     2013.70020        25.05708         7.96343
     2013.70294        14.80135         8.15760
     2013.70568         9.76062         8.28630
     2013.70841        15.77789         8.18357
     2013.71115        17.18916         8.04471
     2013.71389         4.75243         8.06390
     2013.71937        22.26197         8.00068
     2013.72210        14.67325         8.17905
     2013.72484        14.67752         8.04810
     2013.72758         6.37579         8.35291
     2013.73032        15.52506         8.29872
     2013.73305        10.18433         8.04245
     2013.73579        13.88060         7.89344
     2013.73853        11.38887         7.86521
     2013.74127        16.03114         8.21292
     2013.74401        14.26241         8.87108
     2013.74674        -0.99232         8.81012
     2013.74948         4.39295         8.08535
     2013.75222         0.41822         8.13615
     2013.75496         1.57849         7.80877
     2013.76043         2.77003         8.02100
     2013.76317         6.76330         7.96343
     2013.76865         8.02584         7.93182
     2013.77412        12.97038         7.91037
     2013.77686         6.50065         8.18583
     2013.77960        10.84892         8.03455
     2013.78507        -5.41954         8.12486
     2013.78758         5.55254         8.77287
     2013.79055         8.42100         8.01649
     2013.79329        -0.36973         8.11132
     2013.79603         7.11754         8.05148
     2013.79876         0.89481         8.08535
     2013.80150         5.28808         8.32807
     2013.80424         9.70635         8.21857
     2013.80698         1.93962         8.15873
     2013.80971         7.19989         8.00520
     2013.81245         8.63116         7.98601
     2013.81793         4.53671         8.01536
     2013.82340         1.68225         8.33372
     2013.82614        12.89152         7.81893
     2013.82888         7.47979         8.03229
     2013.83162         3.72906         8.13164
     2013.83436        -4.04267         8.23437
     2013.83709        10.47960         8.29646
     2013.83983         4.73587         7.86183
     2013.84257         0.35514         7.87537
     2013.84531        -3.56059         8.22873
     2013.84804        -4.78832         8.47257
     2013.85078        -4.88905         8.35178
     2013.85352         4.75222         7.94988
     2013.85626        -3.53251         8.05600
     2013.85900         4.97276         8.16663
     2013.86173         6.69103         8.12599
     2013.86447         3.65730         8.11132
     2013.86721        -2.84643         8.24453
     2013.86995        10.09284         7.99278
     2013.87269        15.50311         7.69587
     2013.87542        13.37038         8.07068
     2013.87816        20.23465         7.89682
     2013.88090        13.64492         8.11358
     2013.88364         6.33719         8.67465
     2013.88637         0.59046         8.28404
     2013.88911         3.84973         7.60556
     2013.89185        -4.68200         7.92053
     2013.89459        -5.02773         8.13164
     2013.89733         8.36054         7.92956
     2013.90006        -5.62519         8.53241
     2013.90280        -2.51492         8.25582
     2013.90554        -1.19665         8.18583
     2013.90828         8.55662         8.09777
     2013.91102         9.91689         8.25921
     2013.91375         0.53416         8.10341
     2013.91649        -8.15256         8.47144
     2013.91923        -3.74529         8.77851
     2013.92197        -3.65602         7.84715
     2013.92470         8.51725         7.45541
     2013.92744         6.07052         7.54008
     2013.93018         6.80479         7.41364
     2013.93292        -7.17594         7.36058
     2013.93566         0.49533         7.54347
     2013.93839        11.32560         7.44751
     2013.94113         9.80787         7.68120
     2013.94387         2.02114         7.90472
     2013.94661        -0.68459         7.63265
     2013.94935         7.46068         8.10906
     2013.95208         3.91695         8.03116
     2013.95482         6.92122         8.24792
     2013.95756         5.05049         8.20840
     2013.96030        10.85476         7.97698
     2013.96303         5.58603         8.09777
     2013.96577        10.84930         7.41026
     2013.96851         3.35457         7.56153
     2013.97125         3.12484         8.49854
     2013.97399        11.57211         8.12148
     2013.97672         2.68838         8.14857
     2013.97946         1.58165         8.20840
     2013.98220         0.70592         8.24001
     2013.98494         7.65219         8.08874
     2013.98767         1.33546         8.14519
     2013.99041         7.71773         8.03794
     2013.99315         3.47800         8.16212
     2013.99589         4.25527         8.12599
     2013.99863        10.36854         8.00294
     2014.00410        10.04708         7.92730
     2014.00684         9.90735         8.24227
     2014.00958         0.49462         7.60895
     2014.01232        -0.59710         8.02213
     2014.01505         0.07517         8.14744
     2014.01779         6.89144         8.18921
     2014.02053        -1.03429         8.28066
     2014.02327         4.18398         8.15647
     2014.02600        -7.25375         8.58659
     2014.02874         8.72052         7.96343
     2014.03148         8.98379         7.65975
     2014.03422        -1.44994         8.15196
     2014.03696         2.84633         7.85731
     2014.03969         7.01760         8.10906
     2014.04243         2.16487         8.50983
     2014.04517        13.58514         8.21405
     2014.04791         8.25641         7.90021
     2014.05065         5.87268         7.68007
     2014.05338         2.24595         7.90924
     2014.05612         2.80122         8.02665
     2014.05886         3.31149         7.86634
     2014.06160         8.17676         8.22195
     2014.06433         3.01503         8.11696
     2014.06707         8.34230         8.27388
     2014.06981         1.97157         8.35968
     2014.07255         6.54184         7.97472
     2014.07529         2.48711         8.06390
     2014.07802        10.53538         8.58208
     2014.08076        -2.51635         8.07745
     2014.08350         6.78492         7.43961
     2014.08624        -0.60281         7.65975
     2014.08898         1.20946         8.14293
     2014.09171        -2.31927         7.92504
     2014.09445         1.61300         7.31091
     2014.09993         1.47554         7.25221
     2014.10540       -11.89092         8.54257
     2014.10814         0.67736         8.21969
     2014.11088         9.83163         8.03455
     2014.11362        -9.83910         7.89908
     2014.11635       -10.71083         8.60917
     2014.11909         3.10444         8.79432
     2014.12183         8.28971         8.51096
     2014.12731        -0.08775         8.04471
     2014.13004         7.23752         8.05487
     2014.13552         3.50306         8.27050
     2014.13826        -8.45467         7.59991
     2014.14099         7.56060         8.03003
     2014.14373         3.16387         7.55250
     2014.14647         6.91214         7.92617
     2014.14921         4.25441         7.82231
     2014.15195         2.14268         7.98488
     2014.15468        -5.56305         7.93408
     2014.15742       -10.66178         8.14293
     2014.16290        -3.01024         8.31452
     2014.16564       -10.96097         8.33372
     2014.16837         3.00330         8.71416
     2014.17111       -11.27143         8.65772
     2014.17385        -5.62816         8.94672
     2014.17659         4.94311         9.05736
     2014.17932        18.61738         8.52902
     2014.18206         1.13365         8.36758
     2014.18480        -1.95508         8.69949
     2014.18754         6.71819         8.48951
     2014.19028        -4.36354         7.69926
     2014.19575        10.43300         8.41161
     2014.19849         1.09327         8.70174
     2014.20123         6.02754         8.13164
     2014.20397        -8.71318         7.89908
     2014.20670        -2.97591         8.18244
     2014.20944         2.43136         7.60217
     2014.21492         0.72390         8.09325
     2014.21765         1.10417         7.63943
     2014.22313        -1.13529         8.10680
     2014.22587         7.67598         8.18018
     2014.22861         0.67525         8.13051
     2014.23134         4.50952         8.33936
     2014.23408        -3.65721         8.09664
     2014.23682        -2.23994         8.45564
     2014.23956        -7.93067         8.72658
     2014.24230         1.46160         7.84038
     2014.24503        -1.76613         7.97810
     2014.24777        12.10314         8.53918
     2014.25051         3.51241         8.03681
     2014.25325         0.67268         8.38000
     2014.25598         5.36995         8.31001
     2014.25872         1.43922         8.29082
     2014.26146         2.46249         8.60127
     2014.26420        -9.21824         8.28969
     2014.26694        -2.64597         8.38677
     2014.26967        -3.70770         8.50531
     2014.27241        -2.02943         8.78416
     2014.27515        -3.49816         8.64643
     2014.27789        -1.25189         8.59563
     2014.28062        -2.39462         8.24340
     2014.28336         1.32865         8.06503
     2014.28610         3.17292         8.80109
     2014.28884         5.10119         8.54257
     2014.29158        -1.41454         8.45903
     2014.29431         0.20573         8.43758
     2014.29705        10.24600         8.53692
     2014.29979        -2.32472         8.56514
     2014.30253        -7.39545         8.38790
     2014.30527        -0.96318         8.33259
     2014.30800         2.77109         8.21405
     2014.31074        -5.85964         8.88915
     2014.31348        -2.62437         8.15873
     2014.31622        -3.26210         8.07068
     2014.31895         1.73517         8.39468
     2014.32169       -10.50256         8.17115
     2014.32443        -8.09429         8.69610
     2014.32717        -4.06902         8.43306
     2014.32991         0.57925         8.38452
     2014.33264         2.86552         8.42177
     2014.33538        -8.40421         8.45903
     2014.33812        -6.94194         8.76384
     2014.34086        -5.70367         8.43758
     2014.34360        -6.32440         8.15083
     2014.34633         0.41887         8.13728
     2014.34907        -4.59486         8.74916
     2014.35181        -9.35659         9.06526
     2014.35455       -10.56932         8.49064
     2014.35728        -2.68605         8.29646
     2014.36002        -9.51878         8.44774
     2014.36276        -9.12751         8.42967
     2014.36550       -10.60824         8.20163
     2014.36824       -14.71497         8.45677
     2014.37097        -2.46370         8.45790
     2014.37371        -2.34643         8.41048
     2014.37645         1.39084         8.53241
     2014.37919        -7.07989         8.43080
     2014.38193       -11.32062         8.57756
     2014.38466        -5.83035         8.50757
     2014.38740        -3.90608         8.53353
     2014.39014        -3.31481         8.34726
     2014.39288        -9.46954         8.15422
     2014.39561        -4.54626         8.47032
     2014.39835       -10.15599         8.27162
     2014.40109        -6.04172         8.44774
     2014.40383        -3.94445         8.15535
     2014.40930        -7.10591         8.53128
     2014.41204        -6.72564         8.51209
     2014.41478        -2.86837         8.20389
     2014.41752         0.33890         8.35629
     2014.42026        -4.70083         8.24001
     2014.47316       -21.21396        13.92415
     2014.47501        -1.50243         8.06052
     2014.47775        -4.69616         8.06390
     2014.48049        -7.83689         8.03229
     2014.48323        -4.96562         8.83157
     2014.48596         3.41865         8.49515
     2014.48870        -1.98108         8.23776
     2014.49144        -7.75680         7.96682
     2014.49418       -10.98853         8.00068
     2014.49692       -10.75826         7.85054
     2014.49965        -7.66799         8.30775
     2014.50239       -15.79372         7.97810
     2014.50513        -3.87545         8.41274
     2014.50787        -4.08018         8.36984
     2014.51060       -12.74091         7.74216
     2014.51334        -5.43464         7.93182
     2014.51608        -0.64537         8.26146
     2014.51882        -8.53010         8.39242
     2014.52156         2.57317         8.29872
     2014.52429         5.03844         8.03116
     2014.52703        12.68971         8.40145
     2014.52977        -9.13102         8.32807
     2014.53251       -16.02575         8.36081
     2014.53525        -2.58148         8.28969
     2014.53798         5.53179         8.15196
     2014.54072         6.43606         8.59450
     2014.54346         4.56233         8.44661
     2014.54620        -3.89640         8.20389
     2014.54893         6.06287         8.37097
     2014.55167         1.93814         8.40258
     2014.55441        -7.90459         8.57869
     2014.55715       -14.10532         8.37210
     2014.55989        -6.83105         8.49854
     2014.56262        -7.56978         8.12035
     2014.56536        -2.05851         8.07632
     2014.56810        -8.01024         8.32920
     2014.57084        -4.36597         8.26485
     2014.57357         1.13630         8.52112
     2014.57631        -3.61743         8.43532
     2014.57905        -4.80416         8.07181
     2014.58179        -6.01989         8.25469
     2014.58726        -8.30534         8.65207
     2014.59000         1.71593         8.36081
     2014.59274         0.02920         8.42854
     2014.59548         3.87947         8.31227
     2014.59822         2.40174         8.57643
     2014.60095         3.46801         8.46693
     2014.60369         3.43328         8.32920
     2014.60643       -13.52845         8.18470
     2014.60917        -6.19218         8.17115
     2014.61190        -2.01391         8.20389
     2014.61464        -1.00064         8.03794
     2014.61738         7.68663         8.52789
     2014.62012        -3.23010         8.46241
     2014.62286        -2.08283         7.96117
     2014.62559         0.37144         7.83812
     2014.62833         0.72871         8.35065
     2014.63107         5.44798         8.63401
     2014.63381        -7.17575         8.87899
     2014.63655         4.21552         8.17341
     2014.63928        -3.55121         8.45338
     2014.64202        -4.07894         8.19373
     2014.64476        -6.99367         8.15760
     2014.64750        -0.91740         8.30098
     2014.65023        -1.03613         8.13164
     2014.65297         9.33114         8.43419
     2014.65571         5.84041         8.40145
     2014.65845        16.43768         8.24792
     2014.66119        10.75595         8.43419
     2014.66392        11.57222         8.06164
     2014.66666         5.32549         8.01536
     2014.66940         5.25376         8.20615
     2014.67214         6.70403         8.29307
     2014.67488         2.85330         8.05713
     2014.67761        -1.35143         8.25243
     2014.68035        -4.79516         8.22195
     2014.68309        -8.03588         8.40371
     2014.68583        -7.31961         7.92504
     2014.68856         3.41266         8.19373
     2014.69130         1.53893         8.18921
     2014.69404        -0.39280         8.10229
     2014.69678        -2.16653         7.82118
     2014.69952         3.24274         7.89231
     2014.70225         2.11301         8.10906
     2014.70499        10.53328         8.09551
     2014.70773        14.66355         8.14857
     2014.71047         4.58182         7.98488
     2014.71321        -0.02491         7.88779
     2014.71594        -0.68664         8.19599
     2014.71868         1.90063         7.87537
     2014.72142         3.63290         8.23098
     2014.72416        -0.13083         8.10341
     2014.72689        13.26144         8.10454
     2014.72963         6.72571         8.25695
     2014.73237        11.78598         8.19486
     2014.73511        -8.69875         8.04020
     2014.73785         5.71452         8.16889
     2014.74058        13.05279         8.31452
     2014.74332         8.48006         8.06503
     2014.74606        10.28533         8.22873
     2014.74880         6.60960         7.91037
     2014.75154         2.05987         8.11358
     2014.75701         6.92841         7.77264
     2014.75975         7.80668         8.16438
     2014.76249         4.87695         7.91488
     2014.76522         8.12222         7.74329
     2014.76796         6.47649         7.83360
     2014.77070         6.18776         7.70265
     2014.77344         4.90103         7.89456
     2014.77618         3.04330         8.25921
     2014.77891         6.14158         7.96004
     2014.78165        12.70485         8.00181
     2014.78439         6.53812         7.89231
     2014.78713         8.52739         7.83925
     2014.78987         4.47866         7.71732
     2014.79260         4.79393         7.76587
     2014.79534         5.47120         7.70378
     2014.79808        10.58447         7.93069
     2014.80082         6.54074         7.77716
     2014.80355        13.00601         8.08309
     2014.80629         8.07928         7.82796
     2014.80903        11.00555         8.23098
     2014.81177        18.82182         8.03907
     2014.81451        13.95109         8.31791
     2014.81724         3.71036         7.91488
     2014.81998        12.93363         8.01762
     2014.82272         8.06290         8.00971
     2014.82546         4.86617         8.12035
     2014.82820         8.50444         7.95665
     2014.83093         2.91971         8.04923
     2014.83367         2.70398         7.80538
     2014.83641         6.84125         8.03568
     2014.83915         9.77752         7.90585
     2014.84188        12.49779         7.86747
     2014.84462         7.05406         8.31904
     2014.84736         8.18033         8.19260
     2014.85010         4.76760         8.06729
     2014.85284        10.73487         7.77151
     2014.85557         9.63214         8.05713
     2014.85831        11.59941         8.11358
     2014.86105         7.53168         7.70039
     2014.86379         7.98495         7.28833
     2014.86653         3.45522         7.58750
     2014.86926        -6.99551         8.58095
     2014.87200         2.96276         7.64733
     2014.87474         6.71904         7.44187
     2014.87748         8.54931         7.64394
     2014.88021         3.68458         7.81667
     2014.88295        11.24585         7.89231
     2014.88569        14.02412         8.47370
     2014.88843         8.90839         8.52789
     2014.89117        12.73766         9.09800
     2014.89390        -4.11907         8.22082
     2014.89664         6.27620         8.33597
     2014.89938        12.87047         8.82254
     2014.90212         1.86074         8.41387
     2014.90485        -6.18699         8.53692
     2014.90759        -2.51772         8.69497
     2014.91033         8.93055         8.46128
     2014.91307         8.83782         7.51976
     2014.91581         6.44009         7.78280
     2014.91854         6.46236         8.17792
     2014.92128        -0.53937         8.25469
     2014.92402         8.03190         8.34049
     2014.92676        10.54517         8.13954
     2014.92950         5.03644         8.11470
     2014.93223         1.35271         7.91488
     2014.93497         4.57798         8.12825
     2014.93771         3.98025         8.11583
     2014.94045         7.53552         8.07406
     2014.94318         4.25479         8.78190
     2014.94592         2.82706         7.92956
     2014.94866         6.16033         7.74555
     2014.95140         9.18660         7.42154
     2014.95414         5.83687         7.52315
     2014.95687        -4.05886         7.94085
     2014.95961        -2.75759         7.93069
     2014.96235        -5.70132         8.08535
     2014.96509         4.26295         8.25243
     2014.96783        -0.80278         8.24679
     2014.97056         8.52650         8.96478
     2014.97330         6.05577         8.44774
     2014.97604         1.51204         8.06842
     2014.97878         6.29331         8.28066
     2014.98151         6.34958         7.78167
     2014.98425         6.52585         7.38655
     2014.98699         9.69112         7.54121
     2014.98973        -0.45961         7.89005
     2014.99247        -3.93134         7.23301
     2014.99520        -6.18607         7.32333
     2014.99794        13.97020         7.43171
     2015.00068         5.13947         7.44187
     2015.00342         1.61374         7.77490
     2015.00616         5.40701         7.85054
     2015.00889         5.02228         7.97810
     2015.01163        12.27655         8.19260
     2015.01437         6.06582         7.93633
     2015.01711         5.96309         8.02778
     2015.01984         7.93736         7.86860
     2015.02258         4.83063         7.90585
     2015.02532        13.11090         7.98714
     2015.02806         8.69317         7.89908
     2015.03080         2.92044         7.81667
     2015.03353         0.37471         7.89231
     2015.03627         2.64098         7.78957
     2015.03901        15.42325         7.81554
     2015.04175         8.72552         8.25695
     2015.04449         2.81779         8.47483
     2015.04722         0.51606         8.51773
     2015.04996         5.99733         7.96456
     2015.05270         3.16660         7.95665
     2015.05544         4.35587         7.76812
     2015.05817        10.61214         8.01762
     2015.06091        10.38741         8.20615
     2015.06365         6.53468         8.34613
     2015.06639        10.09096         7.96794
     2015.06913         9.13923         8.04245
     2015.07186         4.79350         8.00068
     2015.07460         9.81877         8.06052
     2015.07734         1.91104         8.16663
     2015.08008        -5.88669         7.89795
     2015.08282         1.82558         7.71507
     2015.08555         2.96585         7.84715
     2015.08829         3.74212         8.37549
     2015.09103         7.01139         8.15422
     2015.09377         5.05866         8.12599
     2015.09650         8.72093         7.93182
     2015.09924        12.35020         8.74464
     2015.10198         9.72747         8.19147
     2015.10472         5.56974         7.99165
     2015.10746         2.24401         8.08874
     2015.11019        -5.67472         7.97698
     2015.11293         7.22955         8.24001
     2015.11567         3.21482         8.04923
     2015.11841         4.45109         7.99391
     2015.12115         8.79236         7.62362
     2015.12388        -2.09237         7.58298
     2015.12662        -1.30910         7.50734
     2015.12936         0.80917         7.52653
     2015.13210         0.79944         7.83022
     2015.13483         2.74471         7.73426
     2015.13757         7.02598         7.24543
     2015.14031         1.44925         7.49831
     2015.14305        -0.98148         7.27253
     2015.14579         4.16579         7.42042
     2015.14852         5.74706         7.57508
     2015.15126         8.33833         7.61685
     2015.15400         3.33660         7.70603
     2015.15674         2.47787         7.78393
     2015.15948        12.71514         7.62814
     2015.16221         6.44842         7.33913
     2015.16495         3.80669         7.38768
     2015.16769         2.78496         7.19576
     2015.17043         3.92323         7.55476
     2015.17316         2.00350         7.77264
     2015.17590         9.04277         7.77151
     2015.17864         6.73204         7.58298
     2015.18138         2.96231         7.50396
     2015.18412         5.39658         7.79409
     2015.18685        -0.17715         7.56718
     2015.18959         1.21512         7.99617
     2015.19233        -5.86061         8.20050
     2015.19507         2.29566         7.64620
     2015.19780        -4.38907         8.17567
     2015.20054         0.23420         8.19147
     2015.20328         3.68147         7.97133
     2015.20602         4.17074         8.37436
     2015.20876        -1.46299         7.84038
     2015.21149        -3.20272         7.86860
     2015.21423        -0.35545         8.12035
     2015.21697         1.50882         8.02665
     2015.21971         1.03009         8.05600
     2015.22245        -4.52564         7.73539
     2015.22518        -5.12037         7.79522
     2015.22792         4.30890         7.76700
     2015.23066         3.02017         7.73764
     2015.23340         8.72544         8.07971
     2015.23613        -3.15329         7.86747
     2015.23887        -0.95102         7.88666
     2015.24161         3.28925         8.27162
     2015.24435        -2.84048         8.20615
     2015.24709         6.59079         7.82570
     2015.24982        -0.77294         7.43961
     2015.25256        -0.39067         7.49493
     2015.25530        -6.15240         7.43622
     2015.25804        -5.07412         7.35607
     2015.26078         8.30315         7.46896
     2015.26351         8.89042         7.57508
     2015.26625         3.06469         7.75571
     2015.26899        -0.61604         7.51525
     2015.27173         4.24423         8.05487
     2015.27446         2.01950         7.93859
     2015.27720         7.95877         7.49041
     2015.27994         0.93104         7.96682
     2015.28268        -4.19069         7.95440
     2015.28542        -2.32142         7.79522
     2015.28815         0.12785         8.05261
     2015.29089         2.59312         8.09551
     2015.29363         7.09939         7.93746
     2015.29637         2.23366         7.98488
     2015.29911         9.55193         7.97472
     2015.30184         9.09920         7.99165
     2015.30458         5.42847         8.01987
     2015.30732        -0.48026         7.75006
     2015.31006        -7.27399         7.58975
     2015.31279         0.14528         7.70716
     2015.31553        -7.06345         7.69249
     2015.31827        -8.18918         7.96343
     2015.32101         0.79209         7.85505
     2015.32375         7.12036         7.65523
     2015.32648         5.89763         7.96230
     2015.32922         3.87090         7.92392
     2015.33196         3.62417         8.19373
     2015.33470         4.94544         7.80538
     2015.33744         5.21171         7.63040
     2015.34017         0.84698         7.89456
     2015.34291         5.25725         7.91940
     2015.34565        -7.65148         8.08761
     2015.34839         5.67279         7.97810
     2015.35112        -1.32994         7.69587
     2015.35386        10.07334         7.90021
     2015.35660        -4.28039         8.15760
     2015.35934        -5.91112         8.24679
     2015.36208         1.67215         7.73651
     2015.36481         3.32242         7.65749
     2015.36755         4.96669         7.83134
     2015.37029         4.73496         8.05148
     2015.37303         3.48023         8.25356
     2015.37577        -0.21350         7.89795
     2015.37850        -1.95623         8.12712
     2015.38124        -2.92596         7.87199
     2015.38398        -2.55269         7.82231
     2015.38672        -0.53142         8.07406
     2015.38945         0.51585         8.20840
     2015.39219         4.70612         8.22873
     2015.39493         0.35939         8.12825
     2015.39767        -4.04934         7.55250
     2015.40041        -3.79107         7.77828
     2015.40314         0.84020         8.18131
     2015.40588         1.46947         7.90360
     2015.40862        -0.30726         8.16776
     2015.41136         8.20501         7.82570
     2015.41410         3.72128         7.83473
     2015.41683         0.10855         7.90811
     2015.41957         0.44582         7.62701
     2015.42231         3.79409         7.40461
     2015.42505         1.54836         8.09664
     2015.42778        -2.88537         7.91376
     2015.43052         4.49290         7.87763
     2015.43326         3.11017         7.75458
     2015.43600        12.56444         8.04020
     2015.43874         4.02771         7.91376
     2015.44147         5.78498         8.52676
     2015.44421        -1.51275         7.49831
     2015.44695         5.95852         7.23640
     2015.44969         4.79480         7.44977
     2015.45243         6.67907         8.08084
     2015.45516         8.63134         8.41387
     2015.45790         2.21461         8.16551
     2015.46064        -0.26912         8.15422
     2015.46338         5.60615         8.31904
     2015.46611        12.93342         7.84602
     2015.46885        11.28869         8.06390
     2015.47159         6.98096         8.32356
     2015.47433         6.71823         8.33372
     2015.47707         3.01550         8.53918
     2015.47980         8.04277         7.79748
     2015.48254         5.68104         8.39355
     2015.48528         1.47531         7.95327
     2015.48802         5.36858         7.58298
     2015.49076         7.13485         7.64733
     2015.49349        -1.72488         8.73561
     2015.49623         3.72739         8.29985
     2015.49897         1.64766         8.41500
     2015.50171         3.35693         8.01197
     2015.50444         5.66120         7.63491
     2015.50718        -1.77853         8.04020
     2015.50992         6.52674         8.41726
     2015.51266         7.89401         8.09777
     2015.51540        10.13728         8.07406
     2015.51813         4.85955         8.14067
     2015.52087         9.11882         8.15422
     2015.52361         6.15509         8.44322
     2015.52635        -0.04464         8.03568
     2015.52908         2.49663         8.00181
     2015.53182         3.83890         7.91940
     2015.53456         4.79817         7.92730
     2015.53730         8.53444         8.07745
     2015.54004         4.97971         8.10229
     2015.54277         6.27698         7.95440
     2015.54551         3.93726         7.81554
     2015.54825         8.64053         8.08987
     2015.55099        14.15480         7.75458
     2015.55373        17.15207         8.19373
     2015.55646        15.77734         7.84941
     2015.55920         2.31661         8.11583
     2015.56194        12.80388         8.08648
     2015.56468         9.34715         7.99617
     2015.56741        10.95042         8.11583
     2015.57015        16.36269         8.30098
     2015.57289         8.57096         8.47370
     2015.57563         7.58823         7.96117
     2015.57837         6.41750         7.94875
     2015.58110         5.92177         8.21631
     2015.58384         3.75004         8.30775
     2015.58658        14.20931         8.11470
     2015.58932        10.11958         8.21969
     2015.59206        14.24885         8.49741
     2015.59479        13.85512         8.13051
     2015.59753        14.67839         8.27162
     2015.60027         8.35166         8.18470
     2015.60301        14.24793         8.49515
     2015.60574         4.52320         8.15986
     2015.60848        17.13547         8.49628
     2015.61122        11.06674         8.33259
     2015.61396        12.41201         8.15083
     2015.61670        19.24328         8.14970
     2015.61943        13.18255         8.19937
     2015.62217        18.93082         7.88102
     2015.62491        10.04009         8.01423
     2015.62765        12.19436         8.17002
     2015.63039        11.97163         8.30211
     2015.63312        11.74590         8.19486
     2015.63586        13.90017         8.32920
     2015.63860         6.65544         8.01762
     2015.64134        13.88372         8.26372
     2015.64407        10.13799         8.28066
     2015.64681        -0.71474         8.73110
     2015.64955         4.45053         7.97133
     2015.65229         5.87180         8.23324
     2015.65503        13.54107         8.15422
     2015.65776        10.80334         8.64756
     2015.66050        13.57261         8.27953
     2015.66324        16.88388         7.90698
     2015.66598        11.50515         8.18244
     2015.66872        15.75042         8.49967
     2015.67145        15.65069         7.84489
     2015.67419        10.86296         8.06616
     2015.67693        19.25923         7.93972
     2015.67967        14.63350         7.71168
     2015.68240        13.05577         7.94649
     2015.68514        -1.03696         8.07519
     2015.68788        14.86431         7.96117
     2015.69062        14.30658         8.01649
     2015.69336        16.66685         8.40597
     2015.69609         6.64112         8.07632
     2015.69883        20.86639         8.09100
     2015.70157        15.83766         7.85392
     2015.70431        13.13593         7.77151
     2015.70705        14.08620         7.47686
     2015.70978        17.73147         7.80086
     2015.71252         7.03074         7.86295
     2015.71526        13.25101         7.90360
     2015.71800        18.72328         7.65185
     2015.72073        12.36055         7.71168
     2015.72347        18.86482         7.65072
     2015.72621         9.55709         7.94085
     2015.72895         8.54936         7.95327
     2015.73169        11.11763         8.05713
     2015.73442        11.84690         7.95891
     2015.73716         6.88618         7.83134
     2015.73990        16.00045         7.78167
     2015.74264        17.11272         7.75458
     2015.74538        23.32799         8.58772
     2015.74811        19.79126         8.33597
     2015.75085         5.75153         7.76587
     2015.75359        14.83680         7.79522
     2015.75633        15.01907         7.66878
     2015.75906        19.32834         7.68910
     2015.76180        14.99861         7.51525
     2015.76454        13.27788         7.73990
     2015.76820        10.06992        13.11358
     2015.77002        13.04642         7.74893
     2015.77275        19.14069         7.77828
     2015.77549        12.61996         8.11358
     2015.77823        15.96223         7.72861
     2015.78097        14.79850         7.66088
     2015.78371        16.59177         7.69587
     2015.78644        16.65904         7.46670
     2015.78918        14.11231         7.41026
     2015.79192        23.10458         7.40235
     2015.79466        16.53885         7.54121
     2015.79739        13.28312         7.73764
     2015.80013        13.74339         7.64056
     2015.80287        12.40166         7.49831
     2015.80561        20.55993         7.58298
     2015.80835        12.29520         7.48476
     2015.81108        14.85147         7.53895
     2015.81382        12.72174         7.75006
     2015.81656         7.63401         8.04245
     2015.81930        17.68628         7.67555
     2015.82203        15.00755         7.99165
     2015.82477        11.41082         8.19937
     2015.82751         8.06809         7.77828
     2015.83025         5.14936         8.37661
     2015.83299        11.77464         8.28743
     2015.83572        14.00491         7.98262
     2015.83846        14.03718         7.22173
     2015.84120         9.82645         7.68007
     2015.84394         9.15772         7.44187
     2015.84668        12.26199         7.82683
     2015.84941        19.59326         7.78957
     2015.85215        13.59653         7.76022
     2015.85489        15.75480         7.68910
     2015.85763        11.72607         7.79409
     2015.86036         6.03534         7.87424
     2015.86310        12.08161         7.69249
     2015.86584        16.48288         8.09551
     2015.86858        12.37615         8.02326
     2015.87132         9.48442         7.73764
     2015.87405         6.32469         7.25559
     2015.87679        -2.26804         8.01987
     2015.87953         4.58623         8.07181
     2015.88227        11.27650         7.96907
     2015.88501         6.26477         7.62701
     2015.88774         7.95104         7.44412
     2015.89048        15.69731         7.70152
     2015.89322        17.46958         7.84263
     2015.89596        17.92885         7.59991
     2015.89869        10.81012         7.48251
     2015.90143        11.22039         7.37187
     2015.90417         6.61566         7.43961
     2015.90691        12.97493         7.37413
     2015.90965        12.19020         7.42945
     2015.91238        15.07147         7.69249
     2015.91512         5.78874         7.59540
     2015.91786        -5.56599         7.92730
     2015.92060        -2.91272         8.56176
     2015.92334         6.48055         7.98375
     2015.92607         8.93882         7.73087
     2015.93155        13.03137         8.62385
     2015.93429        -0.10936         8.57079
     2015.93702        23.76191         8.60691
     2015.93976        14.49418         8.59901
     2015.94250         5.90845         8.12712
     2015.94524         8.51472         8.17905
     2015.94798         6.00699         8.43532
     2015.95071        -0.10874         8.13277
     2015.95345        10.18953         7.81554
     2015.95619         7.09980         7.76022
     2015.95893       -17.51293         8.22421
     2015.96167       -20.59066         8.00294
     2015.96440         6.14361         7.67217
     2015.96714         4.41288         7.78732
     2015.96988        -3.55185         8.03907
     2015.97262        12.67642         7.69136
     2015.97535         3.38969         7.73426
     2015.97809         2.29196         7.45654
     2015.98083         3.18523         7.52541
     2015.98357        -5.29550         7.54911
     2015.98631         2.74477         7.43171
     2015.98904        -4.73696         7.88440
     2015.99178         1.69631         7.37187
     2015.99452         1.38658         7.42154
     2015.99726         2.06685         7.50621
     2016.00000        -1.34488         7.41477
     2016.00273         1.04739         7.22850
     2016.00547         2.28066         7.38203
     2016.00821         0.02193         7.97472
     2016.01095         5.82120         7.81667
     2016.01368        -0.18653         8.19599
     2016.01642        -0.71126         7.91150
     2016.01916         0.68501         7.90472
     2016.02190        -0.19172         7.73313
     2016.02464         4.19756         7.65410
     2016.02737         2.22783         7.72410
     2016.03011        -1.16890         7.87311
     2016.03285         2.20037         8.05261
     2016.03559        -1.60036         7.29511
     2016.03833        -8.18509         7.92617
     2016.04106       -11.07082         7.87537
     2016.04380         5.70545         8.05713
     2016.04654         9.23972         8.07406
     2016.04928         8.69699         8.20615
     2016.05201        -9.19474         7.79861
     2016.05475        -2.68347         7.96117
     2016.05749         0.62080         8.21857
     2016.06023         1.38707         8.33823
     2016.06297        -4.53466         7.51525
     2016.06570        -3.50139         7.75232
     2016.06844        -5.04212         8.25469
     2016.07118        -3.81685         8.02552
     2016.07392        -2.10458         8.31227
     2016.07666         2.37669         8.37887
     2016.07939         7.56396         7.72184
     2016.08213        -2.98277         7.70490
     2016.08487        -5.79650         7.56943
     2016.08761        -6.73523         7.46670
     2016.09034        -2.59096         7.58298
     2016.09308        -8.88069         7.83247
     2016.09582        -9.22842         8.09438
     2016.09856        -8.21515         8.49967
     2016.10130        -5.82688         8.13502
     2016.10403       -10.64361         8.12374
     2016.10677        -8.28334         8.14067
     2016.10951        -8.63107         8.23776
     2016.11225        -5.02480         8.24340
     2016.11498        -3.38453         8.18357
     2016.11772       -14.86926         8.17228
     2016.12046       -12.84398         8.25243
     2016.12320        -9.32971         8.43645
     2016.12594       -14.59444         8.25018
     2016.12867         1.27883         8.26146
     2016.13141        -0.05490         7.84489
     2016.13415         1.80137         8.26485
     2016.13689        -1.83136         7.76135
     2016.13963        -3.91309         8.02213
     2016.14236       -11.61682         7.70039
     2016.14510        -7.40255         7.62024
     2016.14784       -10.53728         8.15196
     2016.15058        -4.60001         8.10229
     2016.15331        -0.15374         8.29420
     2016.15605        -0.13547         8.42177
     2016.15879        -4.29520         8.49289
     2016.16153        -7.00093         7.93069
     2016.16427        -5.35966         8.38000
     2016.16700        -5.38839         7.87199
     2016.16974        -7.20612         8.28517
     2016.17248        -9.74585         8.19373
     2016.17522         1.17642         8.35291
     2016.17796         2.45669         8.36871
     2016.18069        -3.78004         8.02100
     2016.18343        -2.04477         8.23889
     2016.18617       -16.71350         8.10341
     2016.18891        -7.59523         8.33484
     2016.19164        -3.21496         8.22082
     2016.19438         4.28131         7.97359
     2016.19712        -2.65942         7.66088
     2016.19986       -16.41315         8.14519
     2016.20260       -23.39888         7.88327
     2016.20533       -14.71261         8.45451
     2016.20807        -3.91834         8.28856
     2016.21081        -3.55807         7.94649
     2016.21355        -5.97580         7.92392
     2016.21629        -6.59452         7.97810
     2016.21902        -6.77925         7.87424
     2016.22176        -8.07298         7.55250
     2016.22450        -9.19371         7.63604
     2016.22724       -15.50744         7.99617
     2016.22997        -2.12717         7.46444
     2016.23271        -6.69690         7.56266
     2016.23545       -13.57463         7.99504
     2016.23819        -7.70236         7.43961
     2016.24093        -7.64809         8.14744
     2016.24366        -4.52682         7.91601
     2016.24640         0.25845         7.70603
     2016.24914        -4.67828         7.69362
     2016.25188        -3.28201         7.73426
     2016.25462         2.75226         7.96343
     2016.25735        -6.95847         7.82231
     2016.26009         2.86380         7.54460
     2016.26283        -7.53193         7.65072
     2016.26557        -1.98066         7.90472
     2016.26830        -2.20039         8.00407
     2016.27104         1.34188         8.15986
     2016.27378        -0.56385         8.01875
     2016.27652        -5.72458         7.72297
     2016.27926        -8.76131         8.03342
     2016.28199        -3.25104         7.95665
     2016.28473         0.89923         7.85392
     2016.28747        -0.85350         7.79973
     2016.29021        -6.30323         7.71055
     2016.29295        -1.54596         8.24114
     2016.29568         4.78231         7.85279
     2016.29842        -2.53542         7.99165
     2016.30116        -1.27915         8.03907
     2016.30390        -5.31588         7.69926
     2016.30663         5.83339         7.97359
     2016.30937        -6.35534         8.17228
     2016.31211        -3.89106         7.97810
     2016.31485        -2.33679         7.58524
     2016.31759         1.67548         7.64281
     2016.32032        -0.75825         7.79183
     2016.32306        -7.41298         7.97585
     2016.32580        -6.86771         7.87989
     2016.32854         3.95756         7.89118
     2016.33128         0.24583         7.82344
     2016.33401         5.56210         7.92843
     2016.33675        -5.58763         7.57169
     2016.33949        -8.05136         7.86295
     2016.34223       -11.47709         8.21518
     2016.34496         2.31118         8.59337
     2016.34770         8.74545         8.18696
     2016.35044        -1.88528         8.18357
     2016.35318        -4.48601         7.88440
     2016.35592        -9.42674         7.58298
     2016.35865       -10.16347         7.89118
     2016.36139        -2.67020         8.03568
     2016.36413         9.71907         7.84038
     2016.36687         1.92534         7.83925
     2016.36961         6.46761         7.93972
     2016.37234         9.81488         7.81780
     2016.37508         8.28715         7.85731
     2016.37782        -5.40958         7.60217
     2016.38056        -0.89031         8.14857
     2016.38329         3.41896         7.89682
     2016.38603        -1.66277         7.91376
     2016.38877         7.98850         7.90247
     2016.39151        -1.76423         7.80312
     2016.39425        -1.93596         7.75909
     2016.39698         8.75431         7.83925
     2016.39972         2.26058         7.53105
     2016.40246        -4.33015         7.89682
     2016.40520        -4.45288         7.67104
     2016.40794        -2.00360         7.71619
     2016.41067        -6.89533         7.65523
     2016.41341        -7.05406         7.63265
     2016.41615        -7.43779         7.84828
     2016.41889         6.02348         8.10454
     2016.42162         3.19175         8.07406
     2016.42436        -7.20498         8.01536
     2016.42710         2.90229         7.82457
     2016.42984        -5.82544         8.42967
     2016.43258         0.84383         8.34500
     2016.43531         8.76910         8.24566
     2016.43805        -0.22163         7.76700
     2016.44079         2.00264         7.86408
     2016.44353        -3.88009         7.72410
     2016.44626        -8.50582         7.80989
     2016.44900         2.17445         8.03681
     2016.45174        -2.45528         8.01536
     2016.45448        -3.15301         8.01197
     2016.45722        -1.27474         7.81554
     2016.45995        -0.95947         7.81215
     2016.46269         1.28080         8.12374
     2016.46543        -7.75593         7.78845
     2016.46817        -2.66966         7.97472
     2016.47091        -2.02439         7.97472
     2016.47364         0.32588         7.69249
     2016.47638         3.76515         7.97810
     2016.47912         1.12742         8.18808
     2016.48186        -0.58431         7.91037
     2016.48459        -4.15304         7.89795
     2016.48733         4.48323         7.86634
     2016.49007        -3.81950         8.04245
     2016.49281         3.42777         7.82006
     2016.49555        -2.39196         7.79748
     2016.49828        -0.23569         8.03794
     2016.50102        -2.68142         8.02552
     2016.50376        -5.34414         8.09777
     2016.50650         0.72313         7.82344
     2016.50924         0.54540         7.80312
     2016.51197        -6.85933         7.78619
     2016.51471        -0.64906         7.87199
     2016.51745         1.09021         8.03003
     2016.52019         4.01348         8.28969
     2016.52292         0.77175         8.18583
     2016.52566        -5.67298         7.79522
     2016.52840        -4.12271         8.19712
     2016.53114        -2.41444         7.76361
     2016.53388         1.83883         7.95214
     2016.53661         1.22110         7.94198
     2016.53935         2.34637         7.87876
     2016.54209         1.04364         7.71732
     2016.54483         1.49691         7.86070
     2016.54757         4.45218         7.91037
     2016.55030         1.32045         8.00859
     2016.55304        12.28272         7.90360
     2016.55578        -1.06501         7.92504
     2016.55852        -0.68474         7.55927
     2016.56125        -1.00947         7.74555
     2016.56399         3.39180         7.83022
     2016.56673         5.75107         8.06616
     2016.56947         3.43034         7.72748
     2016.57221         5.08961         7.81780
     2016.57494        -2.13412         7.98714
     2016.57768         4.87215         7.89795
     2016.58042         6.13642         7.83134
     2016.58316        -0.71331         7.53782
     2016.58590         6.53496         7.68458
     2016.58863        -4.46977         7.88666
     2016.59137         4.40250         7.75232
     2016.59411         6.06377         7.99391
     2016.59685        12.79604         8.27953
     2016.59958        -0.31969         7.76022
     2016.60232        -3.09441         7.96794
     2016.60506         8.00986         7.92730
     2016.60780         5.88913         7.92730
     2016.61054        -3.53460         7.76812
     2016.61327         2.01867         7.67668
     2016.61601        -0.45006         7.89456
     2016.61875         7.02121         7.75232
     2016.62149         6.61048         7.70039
     2016.62423         6.39575         7.78619
     2016.62696         6.01402         7.87650
     2016.62970        -0.61471         7.75458
     2016.63244        -5.95444         7.87537
     2016.63518         5.45583         7.80538
     2016.63791        12.03910         7.88102
     2016.64065        13.23537         8.10229
     2016.64339         9.59664         7.76135
     2016.64613         4.81191         7.84150
     2016.64887         4.70218         7.97359
     2016.65160        12.75145         7.80312
     2016.65434         1.10472         7.73651
     2016.65708        -0.81901         7.65185
     2016.65982        -1.85374         7.68233
     2016.66256         0.13953         7.70490
     2016.66529        15.23080         7.73990
     2016.66803        15.21407         7.63830
     2016.67077         8.46334         7.68571
     2016.67351         4.51561         7.57056
     2016.67624        13.23688         7.71055
     2016.67898        10.81715         7.57959
     2016.68172        17.22942         7.84828
     2016.68446        10.34369         7.79748
     2016.68720         9.82396         7.88892
     2016.68993         7.61323         7.71168
     2016.69267         7.18450         7.65975
     2016.69541         9.31777         8.07632
     2016.69815        10.84005         7.84038
     2016.70089        12.77232         7.63265
     2016.70362         7.23459         7.59879
     2016.70636         6.58586         7.93746
     2016.70910        10.01913         8.16776
     2016.71184        13.23940         7.50057
     2016.71457         8.81567         7.73200
     2016.71731        14.11694         7.51186
     2016.72005        14.89321         7.32784
     2016.72279        10.64348         7.27591
     2016.72553        11.41875         7.25221
     2016.72826        10.55202         7.43058
     2016.74039        -6.85092        22.90925
     2016.74195        13.93837         7.20028
     2016.74469         4.08864         7.50847
     2016.74743         5.81591         7.31768
     2016.75017         6.29718         7.40800
     2016.75290        10.26645         7.24092
     2016.75564         7.96072         7.16867
     2016.75838         7.30499         7.27366
     2016.76112         5.69326         7.38090
     2016.76386         3.67753         7.67555
     2016.76659        10.41380         7.78054
     2016.76933        11.59907         7.46444
     2016.77207         6.02734         7.48702
     2016.77481         3.86561         7.48138
     2016.83886        -4.22928        18.54144
     2016.84052        -8.29590         7.72974
     2016.84325        -3.51763         7.67442
     2016.84599        -3.93936         7.76022
     2016.84873        13.09791         8.00294
     2016.85147         3.18618         8.01536
     2016.85420        -2.18355         7.90360
     2016.85694         3.89172         8.06052
     2016.85968        -3.51601         8.22534
     2016.86242         5.49026         7.84038
     2016.86516         7.24053         8.10680
     2016.86789         7.78680         7.90247
     2016.87063         4.69007         7.81893
     2016.87337         9.08634         8.38113
     2016.87611         1.03561         7.49041
     2016.87885         6.28188         7.17431
     2016.88158        -2.06085         7.40235
     2016.88432        -1.13358         8.02891
     2016.88706         4.00469         7.85957
     2016.88980         0.24897         8.03229
     2016.89253         0.62524         7.66426
     2016.89527         2.95151         7.50621
     2016.89801         5.80278         7.14496
     2016.90075        -0.28595         7.41816
     2016.90349         3.88832         7.78957
     2016.90622         5.26459         7.31204
     2016.90896        -4.37914         7.80538
     2016.91170        11.19213         7.33123
     2016.91444        -1.09760         7.35155
     2016.91718        -1.82133         7.19576
     2016.91991        -5.62106         7.23527
     2016.92265        -4.13079         7.70490
     2016.92539         1.61148         7.78732
     2016.92813        -3.65025         7.54573
     2016.93086         2.46702         7.50847
     2016.93360        -3.56171         7.42719
     2016.93634         8.18956         7.52879
     2016.93908        24.02883         8.61708
     2016.94182         3.42210         8.13390
     2016.94455        -2.13363         7.58750
     2016.94729         0.12264         7.35720
     2016.95003        -1.47909         7.35945
     2016.95277       -10.90582         7.27930
     2016.95551       -29.32155         8.67691
     2016.95824        11.66372         7.45315
     2016.96098         7.67799         7.38090
     2016.96372        -6.13374         7.44525
     2016.96646        -6.57047         7.36397
     2016.96919         6.39980         8.14857
     2016.97193         0.70107         7.47573
     2016.97467         2.00734         7.10883
     2016.97741        -7.03639         7.32107
     2016.98015        -4.84912         7.27366
     2016.98288         7.96215         7.03884
     2016.98562         1.33143         7.09867
     2016.98836         2.98470         7.38316
     2016.99110        -0.44403         7.17318
     2016.99384         3.28824         7.47912
     2016.99657        -0.93549         7.75232
     2016.99931         1.19578         6.95191
     2017.00205        -3.04495         6.93498
     2017.00479         0.82532         7.04110
     2017.00752        -8.06241         7.13480
     2017.01026        -8.95614         7.49380
     2017.01300         1.53613         7.31994
     2017.01574        -3.21760         7.21269
     2017.01848        -4.32733         7.09416
     2017.02121       -14.20106         8.33033
     2017.02395         6.23621         7.59879
     2017.02669        -5.31852         7.97359
     2017.59069        -1.81384         8.25356
     2017.59342         0.37643         8.00294
     2017.59616        -0.72230         7.96456
     2017.59890        -2.79303         7.56605
     2017.60164        -0.15276         7.85618
     2017.60438         0.59051         8.12712
     2017.60711         5.56278         7.79070
     2017.60985        -4.25595         8.09551
     2017.61259        -3.18568         8.32017
     2017.61533        -4.77541         7.72184
     2017.61807         3.46786         8.03455
     2017.62080         2.22813         7.91037
     2017.62354         8.75240         7.89344
     2017.62628        -1.49433         7.81328
     2017.62902         2.51994         8.19712
     2017.63175        -4.68179         7.82231
     2017.63449        -4.29652         7.69926
     2017.63723        -1.99925         7.52992
     2017.63997        -2.77798         8.07293
     2017.64271         7.34129         7.48364
     2017.64544         3.63956         7.72184
     2017.64818         5.11083         7.75796
     2017.65092        -3.42090         7.62136
     2017.65366        -3.54963         7.68458
     2017.65639         6.21165         7.48589
     2017.65913         4.45992         7.71168
     2017.66187        -3.81881         7.82457
     2017.66461         9.73746         7.93972
     2017.66735         0.44773         7.97810
     2017.67008         9.01200         7.73087
     2017.67282         3.43327         8.15647
     2017.67556         4.15554         7.91827
     2017.67830        -0.27719         7.87876
     2017.68104        -0.72692         7.72071
     2017.68377         3.50935         7.74555
     2017.68651        19.23262         7.97810
     2017.68925         3.20589         8.03455
     2017.69199         4.42316         7.80312
     2017.69472         1.38943         7.63717
     2017.69746         4.70570         7.95891
     2017.70020        14.63297         7.79070
     2017.70294        16.15924         7.78732
     2017.70568         0.34551         7.58975
     2017.70841         4.88878         7.46783
     2017.71115         2.04305         7.85054
     2017.71389         6.84032         7.80651
     2017.71663        14.84659         8.10680
     2017.71937        10.82786         7.87424
     2017.72210         7.25813         7.87424
     2017.72484         2.77740         7.59991
     2017.72758         3.63667         7.72523
     2017.73032         5.29694         7.61798
     2017.73305         9.57521         7.54121
     2017.73579         3.19048         7.54121
     2017.73853         2.35475         7.63040
     2017.74127         7.56202         7.82796
     2017.74401        17.06329         7.48928
     2017.74674         3.37056         7.66991
     2017.74948         5.96283         7.71507
     2017.75222         5.36911         7.62588
     2017.75496         2.84038         7.52541
     2017.75770         5.23765         7.73651
     2017.76043         2.71792         7.57056
     2017.76317         5.49319         7.36284
     2017.76591        15.07646         7.58298
     2017.76865        13.88273         7.64959
     2017.77138         4.93700         7.47686
     2017.77412         0.76527         7.63491
     2017.77686        -1.02946         7.78732
     2017.77960        -0.05919         7.48251
     2017.78234         4.30308         7.82457
     2017.78507         1.69235         7.44299
     2017.78781         6.51262         7.51073
     2017.79055         0.82889         7.70265
     2017.79329         9.40116         7.69587
     2017.79603        10.34143         7.76700
     2017.79876        14.20670         7.91940
     2017.80150         1.69597         8.24679
     2017.80424        -0.21076         8.24566
     2017.80698        -6.06849         8.23211
     2017.80971         1.83378         7.85054
     2017.81245         1.70805         7.82006
     2017.81519         9.87132         7.77716
     2017.81793         4.93859         7.81441
     2017.82067        -1.52114         7.99391
     2017.82340         3.97113         7.62249
     2017.82614         5.27540         7.28269
     2017.82888         1.51567         7.79296
     2017.83162         8.22294         7.66201
     2017.83436         3.62621         7.86973
     2017.83709        -0.64652         7.92617
     2017.83983        -3.13825         7.40574
     2017.84257         1.29102         7.20592
     2017.84531        -3.50371         7.33462
     2017.84723        -1.14611        11.30956
     2017.85737        10.98829        19.09575
     2017.85900       -18.08835         8.17679
     2017.86173       -11.49108         7.64281
     2017.86447       -10.47381         7.56040
     2017.86721        -0.33154         7.67781
     2017.86995       -13.24927         7.53670
     2017.87269         1.38200         7.57395
     2017.87542        -6.55973         7.66652
     2017.87816        -7.96546         7.48138
     2017.88090        -4.37819         7.29849
     2017.88364        -7.22092         7.52202
     2017.88637         0.79235         7.98714
     2017.88911        -3.96438         7.97020
     2017.89185       -15.28711         7.93069
     2017.89459        -1.49284         8.04132
     2017.89733        -2.56457         8.12825
     2017.90006       -10.30730         7.83812
     2017.90280        -7.83503         8.09325
     2017.90554        -6.18676         7.36961
     2017.90828       -11.83249         7.28720
     2017.91102        -8.07122         7.49154
     2017.91375       -17.27695         7.70039
     2017.91649        -9.80868         7.41816
     2017.91923        -5.75341         7.00384
     2017.92197       -17.80414         7.38542
     2017.92470       -17.06887         7.21608
     2017.92744       -20.68860         7.39671
     2017.93018       -17.74333         7.37639
     2017.93292       -14.08606         7.61008
     2017.93566       -17.38979         7.73877
     2017.93839        -9.26652         7.43171
     2017.94113       -13.11625         7.78167
     2017.94387       -10.95597         7.53218
     2017.94661        -5.91570         7.42042
     2017.94935       -11.49343         7.85618
     2017.95208       -14.11216         7.47348
     2017.95482       -16.95389         7.82118
     2017.95756       -16.93562         7.32220
     2017.96030        -2.84435         7.14157
     2017.96303       -18.52808         7.83699
     2017.96577       -12.52081         7.90360
     2017.96851       -18.12554         7.05352
     2017.97125       -11.31027         6.88531
     2017.97399       -11.95300         7.41138
     2017.97672       -12.99273         6.99481
     2017.97946       -14.13446         6.90450
     2017.98220       -23.64219         7.37413
     2017.98494       -21.57692         7.26350
     2017.98767       -25.73265         7.98375
     2017.99041       -23.07438         7.47912
     2017.99315       -18.63011         8.18470
     2017.99589       -14.95584         8.10680
     2017.99863       -17.06057         7.39106
     2018.00136       -21.56030         7.89231
     2018.00410       -23.75103         7.65297
     2018.00684       -21.40176         7.75006
     2018.00958       -19.13749         7.48589
     2018.01232       -28.94822         7.91940
     2018.01505       -23.62295         8.00859
     2018.01779       -18.91468         7.89682
     2018.02053       -16.88741         7.79635
     2018.02327       -12.31414         7.93182
     2018.02600       -20.17887         7.27591
     2018.02874       -14.82960         7.83925
     2018.03422       -24.61006         8.05374
     2018.03696       -23.27979         7.62249
     2018.03969       -18.82751         7.61572
     2018.04243       -18.79424         7.72410
     2018.04517       -20.54097         7.56266
     2018.04791       -25.53370         8.26937
     2018.05065       -24.16043         7.73200
     2018.05338       -25.42316         7.41251
     2018.05612       -17.55389         7.17431
     2018.05886       -26.85162         7.65523
     2018.06160       -20.28035         7.36171
     2018.06433       -16.17108         8.16325
     2018.06707       -14.49181         7.28043
     2018.06981       -23.27954         7.40574
     2018.07255       -26.72527         7.50509
     2018.07529       -30.33600         8.35516
     2018.07802       -19.05773         8.23324
     2018.08076       -23.00146         8.37097
     2018.08350       -16.79719         7.46219
     2018.08624       -23.21892         8.09890
     2018.08898       -22.85665         8.57869
     2018.09171       -16.40338         8.22082
     2018.09445       -17.14611         8.11358
     2018.09719       -19.42284         8.06729
     2018.09993       -14.04257         8.20276
     2018.10266       -21.38330         7.83925
     2018.10540       -13.11903         8.49515
     2018.10814       -19.72876         8.14067
     2018.11088       -12.29349         7.57959
     2018.11362       -16.43622         7.34929
     2018.11635       -18.90495         7.19237
     2018.11909       -22.33668         7.35833
     2018.12183       -28.50041         8.23437
     2018.12457       -17.78314         7.45541
     2018.12731       -19.89187         7.35155
     2018.13004       -17.79160         7.57056
     2018.13278       -12.26033         7.26237
     2018.13552        -7.24405         6.84579
     2018.13826       -11.93878         6.91014
     2018.14099       -22.34251         7.15399
     2018.14373       -18.93024         7.07722
     2018.14647       -18.87297         7.40574
     2018.14921       -26.90970         7.21044
     2018.15195       -19.81443         7.27478
     2018.15468       -20.17316         7.32220
     2018.15742       -19.15589         7.22624
     2018.16016       -21.12762         7.44977
     2018.16290       -31.91935         7.75458
     2018.16564       -20.65208         7.32784
     2018.16837       -28.31481         7.12464
     2018.17111       -21.67054         7.17657
     2018.17385       -16.75027         7.13931
     2018.17659       -18.44000         8.10229
     2018.17932       -14.94773         7.79635
     2018.18206        -5.17246         8.22082
     2018.18480       -16.66719         7.96794
     2018.18754       -16.56392         7.58863
     2018.19028       -15.41965         7.63040
     2018.19301       -17.77638         7.93746
     2018.19575       -15.20111         8.15986
     2018.19849       -17.75184         7.66201
     2018.20123       -18.11257         7.59088
     2018.20397       -10.95730         7.09529
     2018.20670       -27.50803         7.24769
     2018.20944        -7.76876         7.26011
     2018.21218       -18.72249         7.35833
     2018.21492       -35.35722         8.08761
     2018.21765       -12.67495         7.89118
     2018.22039        -1.28568         8.10341
     2018.22313       -14.12341         7.34365
     2018.22587       -28.51314         7.13028
     2018.22861       -20.81687         7.44638
     2018.23134       -25.20259         7.19012
     2018.23408       -11.99332         7.63491
     2018.23682       -17.97305         7.57734
     2018.23956       -10.61878         7.86860
     2018.24230       -12.18651         7.72635
     2018.24503       -12.13124         7.70942
     2018.24777       -14.14897         8.10003
     2018.25051       -13.86470         7.41026
     2018.25598       -20.86716         7.83360
     2018.25872       -11.18989         8.08987
     2018.26146        -6.34862         8.09890
     2018.26420       -20.99435         8.72997
     2018.26694       -28.22008         8.27727
     2018.26967       -13.06681         8.05939
     2018.27241       -15.44554         8.23324
     2018.27515       -11.90627         8.13728
     2018.27789       -16.41800         7.89682
     2018.28062       -12.00273         7.86747
     2018.28336       -22.84046         7.97923
     2018.28610       -15.06219         8.24905
     2018.28884        -9.37692         7.56831
     2018.29158       -19.41265         7.54121
     2018.29431       -26.18338         7.79070
     2018.29705       -20.79411         7.26237
     2018.29979       -22.61284         7.99617
     2018.30253       -14.07857         7.76022
     2018.30527       -16.83030         7.98714
     2018.30800       -17.35203         7.88666
     2018.31074       -20.91676         8.04584
     2018.31334       -15.53960         8.46354
     2018.31622       -13.37122         7.84489
     2018.31895        -3.66595         8.20163
     2018.32169       -17.10068         7.67329
     2018.32443       -16.15141         7.75345
     2018.32727       -20.86705         8.45225
     2018.33264       -12.22059         8.24792
     2018.33538       -14.78432         7.96907
     2018.33812       -22.19005         8.11809
     2018.34086       -16.51978         7.87876
     2018.34360       -13.11051         8.20389
     2018.34633       -13.97424         7.87650
     2018.34907        -9.54097         7.93972
     2018.35181        -4.67970         7.76925
     2018.35455        -7.38743         8.11358
     2018.35728         1.36684         8.01423
     2018.36002        -7.38189         7.94875
     2018.36276        -5.17262         7.70603
     2018.36550       -13.32335         8.04132
     2018.36824        -8.38808         7.79296
     2018.37097       -13.55681         8.04020
     2018.37371        -9.87254         8.26711
     2018.37645        -4.39527         8.41274
     2018.37919        -3.78400         7.99955
     2018.38193       -20.96173         8.24453
     2018.38466        -8.09746         7.86070
     2018.38740        -7.27719         7.65636
     2018.39014         4.16508         8.22082
     2018.39288        -8.72065         7.71619
     2018.39561       -12.38738         8.40597
     2018.39835       -11.98911         8.03229
     2018.40109       -10.70784         8.21744
     2018.40383        -1.14957         7.93182
     2018.40657        -8.49730         8.03342
     2018.40930        -1.87003         8.05036
     2018.41204         2.18824         7.98262
     2018.41478       -14.60849         7.81893
     2018.41752        -9.52922         8.07406
     2018.42026        -7.27495         7.63265
     2018.42299       -15.48467         7.86860
     2018.42573        -5.74040         7.82796
     2018.42847        -8.80213         7.74555
     2018.43121        -1.17386         7.65523
     2018.43394         1.19741         7.82118
     2018.43668        -8.83932         7.92617
     2018.43942         1.23795         7.88327
     2018.44216         0.76922         8.01536
     2018.44436        -2.64196        10.44142
     2018.44763        -7.76024         7.81667
     2018.45037        -0.37697         7.56605
     2018.45327        -9.02457         7.90021
     2018.45585        -4.71843         7.91714
     2018.45859         3.09084         7.87650
     2018.46132        -6.08089         7.66652
     2018.46406        -2.89462         7.91714
     2018.46680        -4.72435         8.08309
     2018.46954       -10.57008         8.09890
     2018.47227         0.23519         7.88892
     2018.47592        -6.96079        14.41410
     2018.47775        -4.43527         7.80086
     2018.48049        -9.23600         8.13615
     2018.48323        -4.07473         8.33033
     2018.48596        -0.58746         8.14067
     2018.48870        -5.57819         8.28178
     2018.49144        -4.50492         8.00633
     2018.49418        -3.23765         8.29985
     2018.49692        -3.72438         8.33710
     2018.49965        -3.91311         8.00068
     2018.50239        -1.96884         7.83134
     2018.50513        -8.29557         7.89118
     2018.50787        -5.94430         8.23550
     2018.51060        -0.83903         8.02665
     2018.51334        -5.41176         8.03568
     2018.51608         4.63751         8.21631
     2018.51882        -0.10921         8.51434
     2018.52156        -1.76894         8.35065
     2018.52429        -4.69267         7.88666
     2018.52703        -5.01240         8.36194
     2018.53025         2.52026         9.66472
     2018.53251       -11.94586         7.85054
     2018.53552         4.37464         9.07090
     2018.53798        -0.48032         7.88892
     2018.54072        -8.52105         8.21292
     2018.54620        -4.87951         8.25130
     2018.54893        -4.46824         8.03455
     2018.55167        -1.96797         8.29985
     2018.55441       -11.74870         8.19486
     2018.55715        -2.98043         8.11470
     2018.55989        -8.38016         8.29195
     2018.56262        -0.12889         8.77287
     2018.56536        -3.46262         8.19034
     2018.56810        -4.91835         8.07406
     2018.57084        -2.46408         8.12712
     2018.57357         1.07319         8.21857
     2018.57631        -2.74754         8.77174
     2018.57905        -5.49827         9.25492
     2018.58179        -6.10700         8.59224
     2018.58453        11.60827         8.17905
     2018.58723         8.88051         8.66110
     2018.59000         6.67181         8.08422
     2018.59274         3.12908         8.35404
     2018.59548        13.14635         8.09325
     2018.59822         5.00862         8.05600
     2018.60095         6.83489         8.29195
     2018.60369         8.68216         8.45564
     2018.60643        -0.17257         8.38113
     2018.60917        -3.75130         8.39129
     2018.61464         0.64825         7.96117
     2018.61738        19.53252         7.84263
     2018.62012         0.73579         8.23098
     2018.62286        -6.87894         8.57756
     2018.62559         6.39533         7.98036
     2018.62833        -6.46140         8.00746
     2018.63107         4.05887         7.90021
     2018.63655        -3.27959         7.95778
     2018.63928         2.21268         8.51773
     2018.64202         1.53095         8.17679
     2018.64476         7.09722         8.12148
     2018.64750         3.92449         7.95778
     2018.65023         0.96876         8.12938
     2018.65297         6.04203         8.06503
     2018.65571         3.61330         7.83247
     2018.65845        -1.43343         8.00633
     2018.66392         7.63411         7.78167
     2018.66666         0.05638         7.53218
     2018.66940        -0.04735         7.47122
     2018.67214         9.16292         7.69700
     2018.67488         0.93319         8.16438
     2018.67761         5.33646         8.01423
     2018.68035         2.05273         8.05036
     2018.68309        -0.18800         7.75796
     2018.68583         1.15427         8.30662
     2018.68856         0.70154         7.96230
     2018.69130         1.90781         7.94198
     2018.69404         4.71808         7.92279
     2018.69678         6.82735         7.81328
     2018.69952        -1.12938         7.74216
     2018.70225         2.53789         8.12374
     2018.70499        -8.06084         8.18357
     2018.70773        -1.91657         7.86860
     2018.71047        -6.58129         8.33484
     2018.71321         2.36398         7.71619
     2018.71594         2.82925         7.89569
     2018.71868        -7.29848         7.66088
     2018.72142        -5.80921         7.91827
     2018.72416        -1.45394         8.44887
     2018.72689        -0.88467         8.03455
     2018.72963        -4.64440         7.86860
     2018.73237        -8.71913         7.68120
     2018.73511        -2.68986         7.65975
     2018.73785        -2.06259         7.94424
     2018.74058        -3.22532         8.23776
     2018.74332        -2.02605         8.11358
     2018.74606        -1.43278         8.09213
     2018.74880         0.46749         7.73200
     2018.75427        -1.57797         8.49741
     2018.75975        -0.10243         7.86295
     2018.76249         8.61184         8.16551
     2018.76796         4.15638         8.08761
     2018.77070         3.29365         8.19599
     2018.77344        -1.95608         7.73426
     2018.77618        -2.28481         7.75796
     2018.77891         4.84946         7.72748
     2018.78165         1.15273         7.98488
     2018.78439        -0.69300         8.02778
     2018.78713        -5.04373         7.64394
     2018.78987       -12.55346         7.91601
     2018.79260        -9.68319         7.86295
     2018.79534         4.84508         7.74442
     2018.79808        -6.63165         7.93633
     2018.80082         0.89462         7.72184
     2018.80355        -2.82511         7.82344
     2018.80629         1.80617         7.99278
     2018.80903        -1.17856         8.00294
     2018.81177         2.65671         8.21405
     2018.81451        -4.92102         7.93521
     2018.81724        -6.36475         7.54347
     2018.82272         0.18679         7.98149
     2018.82546         2.72006         8.11470
     2018.82820         2.56433         7.77941
     2018.83093         3.53360         7.87989
     2018.83358        -0.20921         8.57869
     2018.83641         7.69414         8.49741
     2018.83915         2.27841         7.84602
     2018.84188        -6.52832         8.53579
     2018.84462         2.80395         8.02213
     2018.85010        -3.96051         7.75006
     2018.85284        -6.12124         7.77151
     2018.85557        -7.27197         7.68797
     2018.85831         1.18330         7.69136
     2018.86105         4.54257         8.00407
     2018.86379        -7.56216         7.93972
     2018.86653        -5.23189         7.73200
     2018.86926       -11.82562         8.11922
     2018.87200       -10.42335         7.83247
     2018.87474        -1.12408         7.98149
     2018.87748        -5.41281         7.97698
     2018.88021        -2.32254         8.20840
     2018.88295       -12.75727         8.25130
     2018.88569        -4.97500         7.94988
     2018.88843        -3.37073         8.17454
     2018.89117       -13.10446         8.49628
     2018.89390        -7.69419         8.58998
     2018.89664        -8.69492         8.78190
     2018.89938        -9.85265         8.16889
     2018.90212        -8.14537         7.91714
     2018.90759        -1.31183         8.51209
     2018.90924       -23.24347        20.25063
     2018.91307       -10.58129         8.48386
     2018.91854        -4.42775         7.94198
     2018.92402        -1.59321         7.25898
     2018.93223        -7.76740         7.38881
     2018.93497        -1.68513         7.58411
     2018.93771        -7.28386         7.70378
     2018.94318        -8.49032         7.85957
     2018.94866        -7.00278         8.01536
     2018.95140         3.81649         8.20276
     2018.95414         3.50376         7.56266
     2018.96509       -11.72416         8.44774
     2018.96783        -4.34789         8.06052
     2018.97056        -2.19562         7.39106
     2018.97330       -10.76435         7.50170
     2018.97604        -3.16308         7.84376
     2018.98151       -24.10554         8.23324
     2018.98425        -8.21327         8.23550
     2018.98699       -12.47800         8.14519
     2018.98973       -11.12573         7.74555
     2018.99247        -3.98146         8.35178
     2018.99520       -18.04619         8.42064
     2019.00068        -8.29764         7.29172
     2019.00342       -15.63437         7.52653
     2019.00889         1.66017         7.90134
     2019.01163        -8.73256         7.63040
     2019.01437       -10.54729         8.02891
     2019.01711        -5.61202         7.59088
     2019.01984        -8.44475         7.54686
     2019.02258        -7.40548         8.56402
     2019.02806        -2.34294         8.43871
     2019.03080       -12.43967         8.16889
     2019.03353       -16.68640         7.73990
     2019.03901       -14.09486         7.49831
     2019.04175       -19.33959         7.86408
     2019.04449        -2.85932         8.41726
     2019.04758       -12.33475         8.66675
     2019.04996       -24.28578         8.37097
     2019.05270        -3.50451         8.52563
     2019.05544       -12.23424         7.72523
     2019.05817       -11.65297         7.66878
     2019.06091        -0.98870         8.38677
     2019.06398       -11.40915         8.60127
     2019.06639        -1.83316         8.16099
     2019.06913       -13.89389         8.47822
     2019.07460       -10.73235         7.79070
     2019.08282        -8.51054         7.77828
     2019.08555        -4.07027         7.52428
     2019.08829        -4.30300         7.69249
     2019.09103         1.64627         7.68120
     2019.09377        -4.52545         7.34139
     2019.09650        -8.92718         7.18560
     2019.09924        -7.31191         7.06029
     2019.10198       -10.28264         7.32897
     2019.10472        -6.64137         7.12464
     2019.10746       -11.04610         7.02755
     2019.11019       -11.37783         7.27027
     2019.11293       -18.05656         8.19937
     2019.11567        -8.09529         7.42719
     2019.11841       -10.58402         7.32559
     2019.12115        -6.79675         7.95553
     2019.12362        -5.09870         8.52902
     2019.12629       -11.86948         8.49289
     2019.12936       -10.74094         7.03432
     2019.13210        -7.56967         7.43171
     2019.13483        -7.59040         7.55137
     2019.13757       -12.38813         7.26011
     2019.14031       -16.30286         6.88869
     2019.14305       -17.20359         7.42719
     2019.14579       -16.48732         7.68007
     2019.14852        -3.74605         7.25898
     2019.15948       -19.32797         7.38881
     2019.16769       -21.99216         7.54347
     2019.17043       -16.78889         7.58185
     2019.17316        -7.46662         7.47348
     2019.17864       -10.63108         7.45541
     2019.18412       -21.88554         7.35833
     2019.18685       -17.13627         6.97449
     2019.18959       -12.92799         7.52653
     2019.19233        -9.81172         8.08761
     2019.19507       -13.92445         6.98804
     2019.19780       -19.29918         7.05577
     2019.20054       -18.52991         7.96569
     2019.20328       -12.37164         7.45767
     2019.20602        -8.27737         8.04245
     2019.20876       -20.04610         7.71845
     2019.21149       -16.00083         7.66991
     2019.21423       -14.74856         7.81215
     2019.21971       -12.90702         8.46467
     2019.22245       -12.08175         8.18583
     2019.22518        -9.76848         7.95214
     2019.22792        -8.79621         8.27727
     2019.23066       -18.15594         7.83022
     2019.23340       -19.11767         7.65410
     2019.23613        -8.93540         7.92617
     2019.23887       -25.20313         8.13390
     2019.24161       -16.57686         8.36533
     2019.24435       -18.96259         7.92956
     2019.24709       -12.82532         8.10003
     2019.24982         1.88995         8.16325
     2019.25256        -7.54278         8.51434
     2019.25530        -7.01651         7.90247
     2019.25804       -13.55724         8.07406
     2019.26078        -9.84897         7.60330
     2019.26351        -3.71070         8.56402
     2019.26625        -3.30643         7.99843
     2019.27720        -8.35035         7.81215
     2019.27994         0.92092         7.56831
     2019.28268       -12.00381         7.60330
     2019.28542        -0.59454         7.14496
     2019.28815       -15.84826         8.17341
     2019.29089       -10.60599         7.48251
     2019.29363       -16.01672         7.67668
     2019.29637       -15.85645         8.03794
     2019.29911         0.64682         8.23324
     2019.30184       -13.56991         8.34275
     2019.30458       -11.54164         7.61120
     2019.30732       -10.04137         8.19824
     2019.31279       -17.65483         7.50734
     2019.31553        -2.20556         7.67781
     2019.31827       -11.72329         8.39016
     2019.32101       -12.37402         7.71619
     2019.32375       -15.61675         7.93521
     2019.32648       -15.09748         7.24205
     2019.32922       -17.72121         6.91579
     2019.33196       -10.76094         8.04471
     2019.33470       -10.28667         7.57621
     2019.33744        -9.45040         7.74442
     2019.34017       -12.11513         7.92843
     2019.34291       -12.34186         7.52879
     2019.34565        -9.60159         7.71281
     2019.34839       -20.21332         7.80086
     2019.35112       -23.03905         8.17341
     2019.35386       -10.98678         7.68120
     2019.35660        -7.67051         7.74216
     2019.35934        -8.05124         7.80199
     2019.36481        -9.30970         7.80877
     2019.36755        -5.48443         7.91376
     2019.37029         3.80184         8.08648
     2019.37303       -15.38889         7.84489
     2019.37577        -0.50162         7.93633
     2019.37850         2.09765         8.43871
     2019.38124         5.68492         8.10116
     2019.38431        -1.47453         8.95237
     2019.38672         1.52347         8.06616
     2019.38945       -10.92726         7.79635
     2019.39219       -14.78699         8.06164
     2019.39493        -8.57672         7.36397
     2019.39767        -0.19845         8.12599
     2019.40041        -0.84918         7.94988
     2019.40314         0.48709         8.06164
     2019.40588         5.16236         7.89231
     2019.40862        -0.24437         8.07181
     2019.41410        -8.93383         8.27050
     2019.41683        -5.89756         8.01875
     2019.41957       -11.57129         8.26598
     2019.42505        -6.32275         8.11583
     2019.42738        -2.56582        10.82525
     2019.43024         1.91755         7.55137
     2019.43326       -15.02194         6.86724
     2019.43600       -14.39367         7.01175
     2019.43874       -16.06440         7.06142
     2019.44147        -9.05613         7.17770
     2019.44695       -12.09659         7.02981
     2019.44969       -15.96832         7.14157
     2019.45243        -8.19705         6.91127
     2019.45516        -1.99278         6.94514
     2019.46064       -11.62224         6.94853
     2019.46338       -10.25497         7.38203
     2019.46611         4.08530         7.25559
     2019.46885        -4.78343         7.01513
     2019.47159        -2.61916         7.06029
     2019.47433       -10.43589         6.90337
     2019.47707        -3.17562         6.96094
     2019.48528       -10.06780         7.07158
     2019.48802       -13.69953         7.04787
     2019.49349        -8.73099         6.89208
     2019.50171       -12.43318         6.88531
     2019.50444       -12.99791         7.25221
     2019.51266         0.24890         7.42493
     2019.51540       -13.33883         7.04787
     2019.51813       -15.71756         7.10432
     2019.52361       -12.14002         6.92708
     2019.52635        -6.64375         7.06932
     2019.52908       -10.63548         7.46783
     2019.53182       -11.04221         7.19124
     2019.53456        -6.17994         7.13819
     2019.53730        -3.68067         7.04561
     2019.54004        -6.35640         7.19463
     2019.54277         2.96387         7.41703
     2019.54825        -1.51059         7.04674
     2019.55099        -8.00632         6.92595
     2019.55373         2.06695         7.10996
     2019.55646         0.64122         7.30188
     2019.56194        -6.54824         6.83676
     2019.56468        -2.29097         6.95417
     2019.56741        -9.78970         7.02078
     2019.57015         0.56157         6.92369
     2019.57289       -14.67316         7.18334
     2019.57563        -3.00888         6.93159
     2019.57837         1.10639         7.19915
     2019.58110        -1.52634         6.93498
     2019.58384        -8.88707         7.13141
     2019.58658        -4.21180         7.01400
     2019.58932        -1.09153         7.08964
     2019.59479         0.74901         7.13028
     2019.60301         3.72782         7.21495
     2019.61122       -11.60737         7.11786
     2019.61396        -2.37710         7.07045
     2019.61670        -0.19883         7.03320
     2019.61943        -0.35256         7.04223
     2019.62217         1.79171         7.39897
     2019.65776        -4.73278         7.18447
     2019.66050         4.23249         7.31994
     2019.66324        -5.15024         7.12690
     2019.68433       -17.05574        11.46196
     2019.69609        -4.22699         6.83450
     2019.69883        -0.03472         7.00723
     2019.70157        -3.81645         6.98126
     2019.70431         2.46282         6.88418
     2019.70687        -1.19806         8.11922
     2019.70978         3.77636         7.20140
     2019.71252        -0.99737         7.42719
     2019.71526        -0.19310         7.22511
     2019.71800         4.93917         7.55250
     2019.72073        -7.03856         7.44751
     2019.72347        -4.08229         7.33688
     2019.72621        -3.13702         7.10093
     2019.72895        -3.56975         7.17770
     2019.73169        18.39352         7.40348
     2019.73442         4.66879         6.95191
     2019.73716         3.34206         7.14044
     2019.73990        -5.03967         7.09303
     2019.74264        -5.23840         6.98014
     2019.74538         1.43087         6.95304
     2019.74811         1.66514         6.85257
     2019.75203        16.85339        17.15174
     2019.75359         1.35668         6.97336
     2019.75633        -6.13005         6.73403
     2019.75906        -3.72278         6.50712
     2019.76180        -0.47051         6.55114
     2019.76454         1.07176         6.53082
     2019.76728        -7.76396         6.64372
     2019.77002        -0.77669         6.56921
     2019.77275        -0.77742         6.75661
     2019.77549         2.00485         6.56469
     2019.77823         0.30312         6.55566
     2019.78097         5.35239         6.52066
     2019.78371         3.12966         6.54776
     2019.78644        -5.49807         6.58275
     2019.78918         1.86420         6.69339
     2019.79192        10.34647         7.04561
     2019.79466        -0.14226         6.67420
     2019.79739        -5.00099         6.84579
     2019.80013         2.82228         6.82322
     2019.80287         1.17655         6.92369
     2019.80561         5.62882         6.74532
     2019.80835        -4.11091         6.65162
     2019.81108        -0.37664         6.55453
     2019.81382        -0.83937         6.58050
     2019.81656         2.68090         6.85031
     2019.81930         1.97617         6.72048
     2019.82203        -2.73756         6.59066
     2019.82477         0.07671         6.43261
     2019.82751        -4.06802         6.51953
     2019.83025         2.50625         6.96659
     2019.83299         0.30352         6.88305
     2019.83572         0.31579         6.55905
     2019.83846         3.05206         6.55792
     2019.84120         2.23033         6.58388
     2019.84394        -0.35640         6.81531
     2019.84668        -1.70113         6.71145
     2019.84941         3.48014         6.65613
     2019.85215         4.71541         6.60308
     2019.85489         3.57768         6.65388
     2019.85763         2.33895         6.60308
     2019.86036         0.70522         6.56921
     2019.86310        -1.86250         6.55792
     2019.86584         6.83177         6.74645
     2019.86858         8.70004         6.63243
     2019.87132         6.45131         6.85370
     2019.87405         7.92958         6.62791
     2019.87679        -5.58615         6.69113
     2019.87953         8.08312         6.68436
     2019.88227        15.06239         6.98804
     2019.88501        14.44066         6.84241
     2019.88774         3.39193         6.78935
     2019.89048        10.33120         6.68323
     2019.89322        10.23347         6.58275
     2019.89596        -2.73326         6.74532
     2019.89869         2.22001         6.45857
     2019.90143         5.74128         6.38406
     2019.90417         6.47855         6.42358
     2019.90691         2.68582         6.58163
     2019.90965        -4.90791         6.51050
     2019.91238         5.10536         6.49357
     2019.91391        19.72363        24.84084
     2019.91786         9.90190         6.86160
     2019.92060         6.47017         6.96433
     2019.92607         5.75871         6.84015
     2019.92881         2.84298         6.89772
     2019.93155         3.41725         7.12690
     2019.93429         4.02352         7.13819
     2019.93702        -2.71221         6.80628
     2019.93976         0.36906         6.70807
     2019.94250        -3.30767         6.73403
     2019.94524         8.13960         7.33688
     2019.94798         4.83987         6.91692
     2019.95071       -11.68186         7.24882
     2019.95345         2.67641         6.88192
     2019.95619         3.91568         6.84354
     2019.95893        -0.00604         6.64146
     2019.96167        -5.88077         6.58163
     2019.96440        -6.85950         7.03320
     2019.96714         3.76177         7.19802
     2019.96988        -7.16996         6.89095
     2019.97262         3.44531         6.88869
     2019.97535        -4.60142         6.77467
     2019.97809        -5.21515         6.48115
     2019.98083        -2.07288         6.51841
     2019.98357        -6.65461         6.48002
     2019.98631        -4.43334         6.48228
     2019.98904        -3.59707         6.73064
     2019.99178         0.49620         6.70581
     2019.99452        -2.92453         6.79612
     2019.99726         1.62574         6.88756
     2020.00000         6.84301         7.10093
     2020.00273         2.54928         6.85595
     2020.00547         0.62355         6.91466
     2020.00821        -9.20618         6.77354
     2020.01095        -8.74591         6.68210
     2020.01368       -15.60664         6.72048
     2020.01642        -8.12537         6.99030
     2020.01916        -2.39210         6.69678
     2020.02190        -2.72383         6.74984
     2020.02464        -5.85156         6.75209
     2020.02737        -8.45129         6.72161
     2020.03011       -12.89502         6.67646
     2020.03285       -16.82475         6.48454
     2020.03559       -18.67548         6.46422
     2020.03833       -10.12821         6.56582
     2020.04106       -10.66494         6.75887
     2020.04380       -13.66367         6.66855
     2020.04654       -13.97940         6.58388
     2020.04928        -9.79513         6.75548
     2020.05201        -0.42986         6.70129
     2020.05475        -2.85858         6.79386
     2020.05749       -10.59931         6.62114
     2020.06023       -21.00004         7.11899
     2020.06297        -5.91677         7.03771
     2020.06570        -9.28750         6.90563
     2020.06844         2.14277         7.01852
     2020.07118        -5.74196         6.65501
     2020.07392        -4.91069         6.85483
     2020.07666        -7.04042         6.73742
     2020.07939       -16.95815         6.88982
     2020.08213        -3.29388         6.90901
     2020.08487        -5.56261         6.86837
     2020.08761        -5.17434         6.61211
     2020.09034        -2.52507         6.46986
     2020.09308        -3.78880         6.39310
     2020.09582        -9.11253         6.71032
     2020.09856         5.38874         6.97223
     2020.10130        -0.28799         6.81983
     2020.10403        -6.31672         6.66517
     2020.10677        -7.07545         6.54550
     2020.10951        -7.88818         6.69790
     2020.11225       -12.19991         6.61662
     2020.11498         1.13336         6.62791
     2020.11772         0.88663         6.78935
     2020.12046        -5.26010         6.73742
     2020.12320       -10.14983         6.57824
     2020.12594       -18.91656         6.68662
     2020.12867       -15.38829         6.50147
     2020.13141        -5.67902         6.50712
     2020.13415        -6.58475         6.41680
     2020.13689        -5.87848         6.61549
     2020.13963        -3.77021         6.94514
     2020.14236        -6.73494         6.69000
     2020.14510         0.97833         6.93046
     2020.14784        -7.78640         6.45632
     2020.15058        -7.08512         6.69113
     2020.15331       -10.29885         6.70355
     2020.15605        -9.46058         6.70919
     2020.15879        -5.08131         6.68210
     2020.16153        -6.00104         6.54663
     2020.16427        -5.04777         6.39084
     2020.16700         4.63950         6.57824
     2020.16974         0.35477         6.70807
     2020.17248        -5.23596         6.77693
     2020.17522        -0.15669         6.63130
     2020.17796        -0.37442         6.56582
     2020.18069        -2.09015         6.52066
     2020.18343        -1.44488         6.33778
     2020.18617        -8.61561         6.44841
     2020.18891        -7.83134         6.68774
     2020.19164         0.20193         6.70242
     2020.19438        -2.90480         6.67758
     2020.19712         3.08047         6.80064
     2020.19986        -3.55026         6.49921
     2020.20260        -9.58199         6.48115
     2020.20533       -10.13072         6.56808
     2020.20807        -4.30845         6.62791
     2020.21081        -3.24718         6.79161
     2020.21355        -5.45391         7.15625
     2020.21629        -1.51664         7.01626
     2020.21902       -11.36237         6.85483
     2020.22176        -2.72110         6.75096
     2020.22450         1.68317         6.73742
     2020.22724        -9.95556         6.49809
     2020.22997        -3.34229         6.41116
     2020.23271        -4.71402         6.44841
     2020.23545        -4.21675         6.44503
     2020.23819        -3.99348         6.51841
     2020.24093        -6.47521         6.71823
     2020.24366        -0.61094         6.76112
     2020.24640         3.09234         6.83789
     2020.24914       -14.23039         6.59066
     2020.25188        -6.36412         6.57147
     2020.25462        -3.15385         6.50034
     2020.25735        -1.02558         6.53308
     2020.26009        -3.25231         6.77580
     2020.26283         0.54296         6.71032
     2020.26557        -4.34177         6.64485
     2020.26830        -0.94050         6.69113
     2020.27104        -2.55023         6.61211
     2020.27378        -1.54796         6.69339
     2020.27652         0.67831         6.76564
     2020.27926         0.29258         6.78709
     2020.28199        -3.51115         6.77693
     2020.28473        -0.12088         6.66291
     2020.28747        -0.44061         6.66065
     2020.29021        -1.19534         6.73516
     2020.29295        -4.60307         6.70468
     2020.29568         3.31620         6.79386
     2020.29842         4.29847         6.74193
     2020.30116         2.96574         6.66517
     2020.30390        -2.47299         6.69678
     2020.30663        -1.69672         6.81531
     2020.30937        -2.32845         7.13254
     2020.31211        -4.30918         7.02191
     2020.31485         0.64009         6.91579
     2020.31759        -5.51264         6.99933
     2020.32032        -1.48137         6.98352
     2020.32306         3.10990         6.69000
     2020.32580        -5.25583         6.69790
     2020.32854        -0.35856         6.73968
     2020.33128        -5.64829         6.67871
     2020.33401        -2.94802         6.62791
     2020.33675         4.80225         6.62678
     2020.33949        -3.92248         6.71484
     2020.34223        -4.55320         6.79386
     2020.34496        -9.24293         6.54889
     2020.34770        -7.65966         6.56469
     2020.35044        -3.59439         6.75661
     2020.35318        -3.34412         6.81418
     2020.35592        -5.91785         6.77919
     2020.35865        -2.05058         6.64372
     2020.36139        -4.72131         6.51389
     2020.36413         1.00096         6.78032
     2020.36687         6.37223         7.07497
     2020.36961        -3.34350         6.87063
     2020.37234        -0.06623         6.72839
     2020.37508         1.58904         7.01965
     2020.37782         0.48031         6.77919
     2020.38056        -2.01042         6.78032
     2020.38329         3.05385         6.75548
     2020.38603       -10.22588         6.76000
     2020.38877        -6.13161         6.76790
     2020.39151        -2.73634         6.53308
     2020.39425        -4.68607         6.57372
     2020.39698        -5.93480         6.71032
     2020.39972        -1.17653         6.71032
     2020.40246        -4.79726         6.74645
     2020.40520        -4.36499         6.70694
     2020.40794         0.05528         6.74758
     2020.41067         0.08355         6.63694
     2020.41341        -5.88218         6.60759
     2020.41615        -3.30591         6.57711
     2020.41889        -6.88664         6.68436
     2020.42162        -0.31837         6.64710
     2020.42436        -3.01110         6.88418
     2020.42710        -3.99483         6.85257
     2020.42984        -9.80956         6.80628
     2020.43258        -4.37629         6.66968
     2020.43531        -7.11602         6.59856
     2020.43805        -6.51474         6.72839
     2020.44079        -7.85047         6.71145
     2020.44353        -2.27520         6.70581
     2020.44626        -7.91993         6.50937
     2020.44900        -3.39966         6.59404
     2020.45174         1.13961         6.60759
     2020.45448         2.08488         6.78483
     2020.45722         2.06415         6.76112
     2020.45995        -5.18858         6.75322
     2020.46269        -9.73231         6.45632
     2020.46543        -7.48804         6.43035
     2020.46817        -4.03777         6.65275
     2020.47091        -9.52250         6.64710
     2020.47364        -6.51823         6.51163
     2020.47638        -5.00396         6.45519
     2020.47912         2.35531         6.62904
     2020.48186        -5.42942         6.74193
     2020.48459        -6.21415         6.70468
     2020.48733        12.26312         7.00497
     2020.49007         5.34739         6.72274
     2020.49281         4.21066         6.60985
     2020.49555        -2.84407         6.66404
     2020.49828         1.80620         6.65388
     2020.53388        -2.64128         6.58388
     2020.53661        -1.14801         6.62791
     2020.53935        -3.15374         6.63017
     2020.54209         1.24053         6.76000
     2020.54483         0.27180         6.70807
     2020.54757         3.02707         6.68549
     2020.55030        -2.23666         6.72500
     2020.55304         3.60561         6.83225
     2020.55578         3.27688         6.78032
     2020.55852         5.47715         6.64936
     2020.56125        -0.22358         6.68774
     2020.56399         2.71769         6.58050
     2020.56673         2.99296         6.62565
     2020.56947         4.13123         6.65726
     2020.57221         3.46150         7.00836
     2020.57494         5.02077         6.78370
     2020.57768        -1.94596         6.75887
     2020.58042        -1.55469         6.88192
     2020.58316       -10.42342         6.81418
     2020.58590        -3.93715         6.79273
     2020.58863         0.88412         6.75548
     2020.59137        -7.73261         6.73177
     2020.59411         7.78166         6.78709
     2020.59958        -4.54280         6.79725
     2020.60232        -0.42553         6.82999
     2020.60506        -1.34126         6.76790
     2020.60780        -0.61999         6.64823
     2020.61054         7.31128         6.85144
     2020.61327         6.50955         6.78822
     2020.61601         1.62082         6.79273
     2020.61875        -1.61791         6.79612
     2020.62149        -4.86564         6.79499
     2020.62423         0.16963         6.85370
     2020.62696        -5.21710         7.01852
     2020.62970         2.89218         6.64485
     2020.63244        -3.94555         6.96772
     2020.63518         4.22672         6.89772
     2020.63791        -0.67101         6.87966
     2020.64065        -3.63774         6.92933
     2020.64339        -0.18247         6.78257
     2020.64613         5.82680         6.84692
     2020.64887         0.52307         6.87402
     2020.65160         6.95234         6.84466
     2020.65434         1.36261         6.88756
     2020.65708         1.13488         6.76451
     2020.65982         3.28815         6.75774
     2020.66256         3.95142         6.77919
     2020.66529         6.12469         6.80967
     2020.66803         3.49096         6.66291
     2020.67077         3.90123         6.65275
     2020.67351         5.46550         6.63243
     2020.67624        -1.32423         6.76790
     2020.67898         3.13404         6.78596
     2020.68172         3.19831         6.71710
     2020.68446         2.77158         6.89660
     2020.68720         5.39785         6.85257
     2020.68993         4.54212         6.75548
     2020.69267         3.39939         6.94401
     2020.69541         1.54566         7.08061
     2020.69815         3.98593         6.82209
     2020.70089         1.40620         6.67420
     2020.70362        -0.51453         6.72161
     2020.70636        -0.60226         7.04223
     2020.70910        -1.33999         7.11448
     2020.71184         3.72928         6.96885
     2020.71457        -0.77745         6.84918
     2020.71731         2.02282         7.00384
     2020.72005         1.08009         6.97336
     2020.72279         3.80136         6.85370
     2020.72553        -0.94736         6.99594
     2020.72826         6.47391         6.87627
     2020.73100         7.12718         6.99143
     2020.73374        -0.85055         6.69678
     2020.73648        -3.62928         6.91466
     2020.73921        -0.16201         6.78257
     2020.74195         5.28326         6.72161
     2020.74469         5.39453         6.80064
     2020.74743         4.66380         6.85257
     2020.75017         1.21407         6.70807
     2020.75290        -1.86066         6.75661
     2020.75564        -0.17539         6.60985
     2020.75838         8.67488         6.80402
     2020.76112        11.49015         6.77241
     2020.76386         7.19642         6.69565
     2020.76659         7.65169         6.72726
     2020.76933        11.21296         6.84354
     2020.77207        11.33823         6.75661
     2020.77481         9.16150         7.07271
     2020.77754         7.99077         6.80628
     2020.78028         0.84204         6.81080
     2020.78302        -6.06669         6.62001
     2020.78576         6.03558         6.77241
     2020.78850         4.88085         6.73855
     2020.79123         7.17612         6.77354
     2020.79397         9.40739         6.71371
     2020.79671         9.65566         6.82999
     2020.79945         4.26193         6.76677
     2020.80219        13.08020         6.97901
     2020.80492        10.76647         6.80854
     2020.80766         8.69774         6.53308
     2020.81040         4.97001         6.75774
     2020.81314        15.27128         6.68887
     2020.81587         7.71155         6.38745
     2020.81861         9.56482         6.33552
     2020.82135         6.50710         6.55340
     2020.82409         5.32937         6.57259
     2020.82683         8.59364         6.64485
     2020.82956         3.26491         6.72048
     2020.83230        15.30218         6.67194
     2020.83504         9.61045         6.72726
     2020.83778         9.13272         6.58501
     2020.84052        12.26199         6.63920
     2020.84325         7.83526         6.89095
     2020.84599         5.50253         6.85144
     2020.84873        12.54380         6.82434
     2020.85147        10.41707         6.66855
     2020.85420        15.00734         6.38971
     2020.85694        17.54661         6.50260
     2020.85968         5.27888         6.81870
     2020.86242         9.04515         6.61436
     2020.86516        10.69542         6.71484
     2020.86789        11.49369         6.78483
     2020.87063         6.23396         6.70468
     2020.87337        12.35823         7.23640
     2020.87611        24.09750         7.44864
     2020.87885         8.46977         7.15173
     2020.88158         9.65604         7.08625
     2020.88432        10.54931         6.75322
     2020.88706         3.80758         6.84015
     2020.88980         1.84885         6.73064
     2020.89253         6.36312         6.58275
     2020.89527         7.18939         6.95643
     2020.89801        10.07266         6.99481
     2020.90075        10.06093         6.78257
     2020.90349         4.53720         6.73629
     2020.90622         3.66747         6.68097
     2020.90896        13.57674         6.98804
     2020.91170         5.96301         6.98352
     2020.91444        10.91728         6.89434
     2020.91718        -1.52844         6.74306
     2020.91991        -0.99817         6.57485
     2020.92265         1.38410         6.65162
     2020.92539        -0.95163         6.74758
     2020.92813         3.42464         6.70694
     2020.93086        -2.93209         6.85595
     2020.93360         5.56518         6.87966
     2020.93634         6.63145         6.79273
     2020.93908         1.91272         6.73968
     2020.94182        -4.32401         6.68549
     2020.94455        -7.92374         6.44503
     2020.94729       -11.55447         6.55679
     2020.95003        -9.19520         6.66968
     2020.95277       -21.88193         6.71145
     2020.95551       -17.01966         6.73629
     2020.95824       -23.39339         6.80064
     2020.96098       -11.52112         7.03320
     2020.96372        -2.93585         6.69790
     2020.96646        -0.33358         6.93498
     2020.96919        -2.61331         7.27253
     2020.97193        -0.67904         7.37300
     2020.97467        -3.53477         6.90788
     2020.97741        -2.27450         6.61662
     2020.98015        -0.93323         6.88192
     2020.98288         1.36404         6.91240
     2020.98562        -3.13269         6.82096
     2020.98836         4.97058         6.51050
     2020.99110         4.09585         6.45519
     2020.99384         2.03612         6.66968
     2020.99657         7.54039         6.72274
     2020.99931         5.09266         6.81983
     2021.00205         0.98993         6.67081
     2021.00479         9.81820         6.89660
     2021.00752        13.63647         6.80854
     2021.01026         8.85974         6.89772
     2021.01300         7.49502         6.43712
     2021.01574        12.01229         7.01175
     2021.01848        -6.31944         6.78032
     2021.02121        -5.80717         6.62001
     2021.02395        -6.58590         6.51163
     2021.02669        -1.18363         6.62227
     2021.02943        -1.67736         6.73855
     2021.03216         3.09791         6.81644
     2021.03490        14.93518         7.32672
     2021.03764        -1.42255         6.77241
     2021.04038        -7.59328         6.83789
     2021.04312         3.46099         6.91804
     2021.04585         1.92926         6.90224
     2021.04859         5.73653         6.76790
     2021.05133        -4.65920         6.50937
     2021.05407         3.77407         6.98465
     2021.05681         2.81734         6.92256
     2021.05954        -5.24239         6.61549
     2021.06228        -1.06112         6.61211
     2021.06502        -2.35185         6.53082
     2021.06776         1.08642         6.33326
     2021.07049        -0.97331         6.34004
     2021.07323         5.15496         6.51841
     2021.07597        -4.21077         6.53647
     2021.07871         0.32550         6.67871
     2021.08145        -4.98123         6.53760
     2021.08418        -4.94196         6.84128
     2021.08692        -3.92069         6.76903
     2021.08966        -6.67042         7.02303
     2021.09240       -12.06515         6.58727
     2021.09514        -1.30188         6.71371
     2021.09787        -3.44361         6.96094
     2021.10061         0.70566         6.74193
     2021.10335        -3.34107         6.74306
     2021.10609        -1.70980         6.62001
     2021.10882         9.27348         6.84128
     2021.11156        -5.66125         6.58050
     2021.11430        -8.57698         6.78370
     2021.11704       -16.31171         6.71597
     2021.11978       -16.90944         6.97449
     2021.12251        -8.21017         6.67081
     2021.12525         0.84710         7.01513
     2021.12799        -6.21563         6.58050
     2021.13073        -4.13336         6.53195
     2021.13347       -11.32709         6.59517
     2021.13620       -18.87082         7.17318
     2021.14168         3.91872         6.48002
     2021.14442         0.57599         6.86837
     2021.14715        -4.83374         6.80289
     2021.14989        -9.71747         6.60195
     2021.15263        -9.36820         6.70807
     2021.15537        -6.28393         6.83902
     2021.15811        -3.68566         6.86611
     2021.16084        -0.36039         6.71371
     2021.16358        -2.68512         6.98014
     2021.16632         3.66715         6.86611
     2021.16906         6.54842         6.66065
     2021.17180        -2.00231         6.72613
     2021.17453        -3.98204         7.02868
     2021.17727         1.82923         6.89998
     2021.18001        -4.66550         6.77806
     2021.18275        -1.08623         6.82886
     2021.18548        -6.48696         6.46083
     2021.18822        -5.59569         6.41342
     2021.19096        -1.44942         6.49809
     2021.19370        -7.14515         6.72161
     2021.19644        -8.70388         6.77806
     2021.19917        -3.11161         6.79725
     2021.20191        -1.95734         6.40890
     2021.20465         3.53394         6.44051
     2021.20739        -2.90979         6.72048
     2021.21013         4.35448         6.81983
     2021.21286        -5.18825         6.79612
     2021.21560        -0.93198         6.47325
     2021.21834         0.39429         6.45857
     2021.22108        -6.92944         6.64597
     2021.22381        -2.18117         6.48228
     2021.22655         0.43810         6.65388
     2021.23203         5.10164         6.46083
     2021.23477        -6.00509         6.71823
     2021.23750        -6.85282         6.88982
     2021.24024         2.37445         6.82209
     2021.24298         0.99672         6.39648
     2021.24572        -0.72901         6.64597
     2021.24846        -6.99674         6.91014
     2021.25119        -3.93947         6.90337
     2021.25393        -2.97420         6.65839
     2021.25667        -1.51093         6.69565
     2021.25941         2.01034         6.61549
     2021.26214         7.57361         6.67194
     2021.26488         2.20488         6.77580
     2021.26762         2.88615         7.02981
     2021.27036        -1.30458         6.74532
     2021.27310        -1.91731         6.84015
     2021.27583         3.04696         6.42809
     2021.27857         2.21523         6.71823
     2021.28131         1.58350         6.91579
     2021.28405         3.49077         7.01513
     2021.28679         1.70204         7.06706
     2021.28952         5.54031         7.01965
     2021.29226         4.14958         6.96659
     2021.29500        -0.73215         6.80177
     2021.29774         4.04212         7.04787
     2021.30047         3.13440         7.02868
     2021.30321        11.31667         6.97223
     2021.30595        13.17194         7.04336
     2021.30869        15.63021         7.00159
     2021.31143        -0.29352         6.77467
     2021.31416        13.95575         6.74645
     2021.31690        10.06002         6.70242
     2021.31964         3.38229         6.92256
     2021.32238         0.30956         6.95191
     2021.32512       -10.85817         6.78596
     2021.32785        -2.86390         6.79048
     2021.33059         5.61037         6.89547
     2021.33333         5.49164         6.95756
     2021.33607         3.30591         6.82660
     2021.33880        -4.17682         6.79273
     2021.34154         0.40545         6.66404
     2021.34428        -0.41028         6.95191
     2021.34702       -10.74201         6.72839
     2021.34976         2.22526         6.62001
     2021.35249        -0.72947         6.66517
     2021.35523         2.40880         6.63581
     2021.35797        -3.89393         6.76790
     2021.36071         2.88534         6.66404
     2021.36344         0.61761         6.83563
     2021.36618        -1.10512         6.79951
     2021.36892         2.49315         6.83338
     2021.37166         1.75742         6.80854
     2021.37440         0.57869         6.86160
     2021.37713        -2.34204         6.74080
     2021.37987         7.89323         6.88756
     2021.38261        -0.14250         6.81757
     2021.38535        -4.38923         6.87289
     2021.38809         3.07504         6.89547
     2021.39082         6.15531         6.78822
     2021.39356         0.57858         6.86724
     2021.39630         6.23686         6.76000
     2021.39904        -4.90487         6.74758
     2021.40177        -1.92760         6.92595
     2021.40451        -6.79233         7.01626
     2021.40725         4.45294         6.76677
     2021.40999         4.03021         6.85708
     2021.41273         3.36348         6.78822
     2021.41546         4.03375         6.95417
     2021.41820        -0.59298         6.89321
     2021.42094        -4.82471         7.31204
     2021.42368         4.32256         6.87853
     2021.42642        11.30983         7.05239
     2021.42915         5.27910         6.95191
     2021.43189         0.53237         6.80628
     2021.43463        -1.86136         6.87515
     2021.43737        -4.94909         6.92256
     2021.44010        -1.50482         6.76564
     2021.44284        -3.26855         6.89772
     2021.44558         1.50272         7.36284
     2021.44832         1.51599         7.03545
     2021.45106         1.81926         7.39445
     2021.45379         5.74153         7.23527
     2021.45653        -4.04120         6.84579
     2021.45927        11.21407         6.80741
     2021.46201         0.24734         7.00723
     2021.46475         3.91461         6.89772
     2021.46748         3.97288         6.89885
     2021.47296        20.19642         7.14157
     2021.47570         2.64969         7.21721
     2021.48117        -0.00577         6.92708
     2021.48391        -2.86150         7.07835
     2021.48665         1.40977         6.87402
     2021.48939         6.11704         6.94514
     2021.49212         4.89232         7.18560
     2021.49486        12.53259         7.17544
     2021.49760        18.07886         7.19689
     2021.50034         6.63013         6.99143
     2021.50308         6.66040         7.36171
     2021.50581        -1.71033         7.19802
     2021.50855         5.21094         7.01400
     2021.51129         5.13921         7.09190
     2021.51403         9.73648         6.98465
     2021.51676         4.06575         6.92482
     2021.51950         2.75202         7.08964
     2021.52224         3.80329         6.89321
     2021.52498        10.88156         7.00159
     2021.52772        10.48983         6.93949
     2021.53045         7.15010         7.07835
     2021.53319         7.76037         6.85031
     2021.53593         4.87864         7.41590
     2021.53867        12.25291         7.68571
     2021.54141         5.00918         7.05577
     2021.54414         4.30845         7.22285
     2021.54688        -0.37628         7.29962
     2021.54962        -6.57101         6.89095
     2021.55236         8.95126         7.02078
     2021.55509         8.91553         7.06368
     2021.55783         2.74180         7.18221
     2021.57009        23.24197        40.35903
     2021.57152        -2.77485         7.24430
     2021.57426        -1.81158         7.09529
     2021.57700         6.88369         7.42719
     2021.57974         5.04496         7.01287
     2021.58247        -3.68377         7.22624
     2021.58521         6.97050         7.03545
     2021.58795         8.55178         6.95417
     2021.59069         4.49705         7.07045
     2021.59616        -5.89941         7.30075
     2021.59890         0.69586         6.95304
     2021.60164        13.51113         7.43396
     2021.60438        10.04940         7.00497
     2021.60711         2.31967         7.07835
     2021.60985        -1.22006         6.94627
     2021.61259         2.55121         6.81418
     2021.61533        11.17648         7.03320
     2021.61807        11.21975         7.11561
     2021.62080         2.80902         7.05013
     2021.62354         9.68229         7.00723
     2021.62628         4.78856         7.22173
     2021.62902         6.46783         7.01965
     2021.63175         7.53510         6.87063
     2021.63449        11.25737         7.09980
     2021.63723         5.72264         7.44187
     2021.63997         9.23191         7.06255
     2021.64271         8.78018         6.96094
     2021.64544         6.93245         7.08061
     2021.64818        12.05972         6.87515
     2021.65092        12.51099         7.00046
     2021.65366         4.41626         6.95078
     2021.65639         7.68653         6.94401
     2021.65913         1.67380         6.87853
     2021.66187         6.84707         7.01852
     2021.66461         9.33734         6.89208
     2021.66735        11.42461         6.90337
     2021.67008         1.46788         7.07271
     2021.67282         9.85615         7.19350
     2021.67556         7.28642         7.29511
     2021.67830         5.54669         7.06142
     2021.68104        13.02296         6.92143
     2021.68377        12.55824         6.99030
     2021.68651         7.71251         7.14947
     2021.68925        11.57378         7.07835
     2021.69199        13.11905         7.11561
     2021.69472        11.47032         7.04787
     2021.69746         9.49759         6.90901
     2021.70020         6.04086         7.02416
     2021.70294        11.88713         7.06593
     2021.70568        11.95440         7.15173
     2021.70841        14.44167         6.94965
     2021.71115        14.11294         6.91579
     2021.71389        14.26721         7.40574
     2021.71663        10.18648         7.35494
     2021.71937        10.70475         7.14835
     2021.72210         2.90702         6.88531
     2021.72484         4.82429         6.97449
     2021.72758         7.46856         6.92030
     2021.73032         9.52983         7.32559
     2021.73305         9.24410         7.05803
     2021.73579        12.33037         6.98239
     2021.73853         6.11064         7.02981
     2021.74127        13.20191         7.10883
     2021.74401         8.55218         7.00949
     2021.74674         8.16445         7.05464
     2021.74948        10.88172         7.14044
     2021.75222         9.71999         7.04900
     2021.75496        16.91026         7.07948
     2021.75770         9.68753         6.98465
     2021.76043        10.29580         7.01626
     2021.76317        11.79507         7.06255
     2021.76591         9.95834         6.96772
     2021.76865         7.75861         7.06255
     2021.77138         9.59388         6.95417
     2021.77412         9.30615         7.10206
     2021.77686        11.19042         6.95643
     2021.77960         4.45770         6.93949
     2021.78234         4.99997         6.85708
     2021.78507        19.50324         6.94062
     2021.78781         8.69451         6.86499
     2021.79055        11.41178         6.85708
     2021.79329         9.47605         6.96772
     2021.79603        11.25932         7.10093
     2021.79876         7.23459         6.90901
     2021.80150         9.47686         7.18334
     2021.80424        10.12213         7.10545
     2021.80698        24.94940         7.21834
     2021.80971        14.89867         7.27704
     2021.81519        16.40421         7.20479
     2021.81793        14.05348         7.10206
     2021.82067         9.53475         7.49493
     2021.82340        15.95602         7.48025
     2021.82614         7.85329         7.49493
     2021.82888        10.43956         7.23640
     2021.83162        18.52683         7.28607
     2021.83436        18.31010         7.29172
     2021.83709         9.53537         7.47573
     2021.83983        -0.07036         7.32784
     2021.84257        11.73191         7.67555
     2021.84531        18.43518         7.42719
     2021.84804         9.64345         7.42493
     2021.85078         5.22572         7.10545
     2021.85352         3.74499         6.95191
     2021.85626        12.92326         7.19802
     2021.85900        12.02353         6.99933
     2021.86173        15.68280         7.35381
     2021.86447         2.69907         7.65185
     2021.86721        12.25634         7.45880
     2021.86995         1.05461         7.35155
     2021.87269        10.25988         7.10206
     2021.87542         7.27016         7.09867
     2021.87816        -1.59757         6.85370
     2021.88090         4.23670         7.01400
     2021.88364        14.98697         7.10658
     2021.88637        -3.06976         7.08625
     2021.88911         3.73751         6.94853
     2021.89185        -1.38722         7.11335
     2021.89459         6.60505         7.11448
     2021.89733         3.97832         6.91579
     2021.90006        -0.63641         7.10319
     2021.90280        -6.20814         6.98465
     2021.90554         3.01613         7.03432
     2021.90828         9.12540         7.11109
     2021.91102         9.67167         7.06481
     2021.91375        -1.89406         6.90788
     2021.91649         6.08921         7.00497
     2021.91923         9.15048         7.23301
     2021.92197         5.79575         7.28156
     2021.92470        -2.80898         7.07384
     2021.92744        -1.89171         7.10206
     2021.93018         1.42456         7.15399
     2021.93292        15.89583         7.64394
     2021.93566        19.50610         7.50057
     2021.93839         9.27337         6.89547
     2021.94113        10.72964         7.14270
     2021.94387         8.37991         7.03771
     2021.94661        -4.99782         6.99368
     2021.94935         4.99245         7.13931
     2021.95208        -0.51928         6.88869
     2021.95482         7.40499         6.72500
     2021.96030         8.38553         7.26237
     2021.96303        13.61880         7.19350
     2021.96577        10.86407         7.43961
     2021.96851         8.04134         7.29398
     2021.97125         5.70861         7.18108
     2021.97399         7.30689         7.23753
     2021.97672         0.40716         7.17883
     2021.97946         5.98243         6.90901
     2021.98220         4.16870         6.87740
     2021.98494         7.88797         6.81080
     2021.98767         2.55824         6.69000
     2021.99041         3.78951         6.89998
     2021.99315       -12.59022         6.68549
     2021.99589         3.41605         7.00949
     2021.99863        -4.27868         6.86724
     2022.00136         1.92459         6.81644
     2022.00410         1.79086         6.80064
     2022.00684        -0.02487         6.96433
     2022.00958         2.35440         7.15625
     2022.01232        -5.37433         7.61911
     2022.01505         3.84194         7.78393
     2022.01779        14.64821         7.42493
     2022.02053        -0.52452         6.85257
     2022.02327        -3.81525         7.44977
     2022.02600        -6.03098         7.19689
     2022.02874         0.80629         7.28156
     2022.03148        -2.02944         7.17770
     2022.03422         0.17383         7.19237
     2022.03696        -6.38890         7.05239
     2022.03969        -4.94663         7.03320
     2022.04243         1.82064         7.09303
     2022.04517        -1.01609         7.17996
     2022.04791         5.07818         7.14383
     2022.05065         4.38745         7.10093
     2022.05338        -2.22628         7.35268
     2022.05612        -8.62401         6.95191
     2022.05886        -8.21274         7.09980
     2022.06160        -4.64947         7.27478
     2022.06433         3.84080         7.10206
     2022.06707        -3.54893         7.13593
     2022.06981         4.96935         7.24995
     2022.07255        -8.92238         7.06706
     2022.07529        -4.83011         6.70355
     2022.07802         3.22516         6.78596
     2022.08076         7.84643         7.13706
     2022.08350         6.25570         6.89772
     2022.08624         0.70497         6.52292
     2022.08898         4.03424         6.57147
     2022.09171        -1.55249         6.67081
     2022.09445        -1.76022         6.98239
     2022.09719        -6.09395         6.88982
     2022.09993        -2.51168         7.29398
     2022.10266        -4.20741         7.17092
     2022.10540        -0.41014         7.07722
     2022.10814         5.31713         7.04674
     2022.11088         4.68040         6.87176
     2022.11362         1.51867         6.91692
     2022.11635         2.38294         6.93385
     2022.11909         1.92721         6.85595
     2022.12183        -1.51352         7.08287
     2022.12457         8.81475         6.81870
     2022.12731         2.28602         6.75887
     2022.13004        -6.20571         6.74193
     2022.13278        -1.11944         6.94175
     2022.13552         1.96483         6.87402
     2022.13826         2.19610         6.63694
     2022.14099        -5.27863         6.56808
     2022.14373        -6.12436         6.48792
     2022.14647         5.19791         6.51728
     2022.14921         4.83518         6.97336
     2022.15195        -1.42555         6.78935
     2022.15468         1.50972         6.73177
     2022.15742         0.85399         6.90111
     2022.16016        -1.36674         7.03320
     2022.16290        -1.93247         7.01400
     2022.16564         3.73981         6.97110
     2022.16837         0.67508         6.82547
     2022.17111         0.23035         6.59969
     2022.17385         5.37662         6.65952
     2022.17659        -2.79511         6.65501
     2022.17932         0.42016         6.66629
     2022.18206        -1.35557         6.83789
     2022.18480         0.83470         6.76000
     2022.18754         4.12497         6.70016
     2022.19028         3.30824         6.98014
     2022.19301         2.46851         6.85708
     2022.19575         4.90978         6.64710
     2022.19849         4.84805         6.80064
     2022.20123         9.32132         7.16076
     2022.20397         8.74759         6.72613
     2022.20670         3.07486         7.04110
     2022.20944         6.54613         7.00159
     2022.21218         5.53140         6.85031
     2022.21492         2.35567         6.73855
     2022.21765         2.88094         6.84128
     2022.22039        -3.48579         6.89321
     2022.22313        -4.66852         7.02078
     2022.22587        -2.36625         7.11109
     2022.22861         4.97102         7.20479
     2022.23134         7.78129         6.95191
     2022.23408        11.42356         6.99030
     2022.23956         7.16510         6.98917
     2022.24230         0.06537         6.95078
     2022.24503         3.27864         6.76903
     2022.24777        11.81391         6.70919
     2022.25051        -0.84282         6.88869
     2022.25325        -0.05055         6.81983
     2022.25598         9.12172         6.98804
     2022.25872         2.15199         6.73177
     2022.26146        -0.89073         6.76000
     2022.26420         4.97954         6.85144
     2022.26694         7.21481         7.00949
     2022.26967         4.74208         6.74419
     2022.27241        -2.13665         6.71258
     2022.27515        12.95362         6.77467
     2022.27789         5.63789         6.43374
     2022.28062        -3.74384         6.55566
     2022.28336         1.93443         6.73855
     2022.28610         4.18770         6.80064
     2022.28884        -9.19703         6.85595
     2022.29158        -0.82276         6.67420
     2022.29431        -1.34249         6.98126
     2022.29705         3.04178         6.83902
     2022.29979         3.25805         6.76112
     2022.30253         1.99032         6.98804
     2022.30527         3.16759         6.86499
     2022.30800         0.43386         7.00723
     2022.31074         3.10913         7.06706
     2022.31348        -4.68560         7.03094
     2022.31622        -7.87333         6.98014
     2022.31895       -24.60406         6.90901
     2022.32169         7.46421         7.05916
     2022.32443        -2.76552         6.70807
     2022.32717        -3.41525         7.17544
     2022.32991         1.34602         6.96094
     2022.33264        -8.22971         7.18899
     2022.33538        -1.29644         7.15286
     2022.33812        -3.42217         7.10206
     2022.34086         3.76610         7.26237
     2022.34360         3.44637         7.18334
     2022.34633        -3.00536         7.23301
     2022.34907        -0.73409         6.72951
     2022.35181         6.01318         6.63130
     2022.35455         2.01645         6.68097
     2022.35728        -1.09427         6.72613
     2022.36002        -2.26900         6.93046
     2022.36276        -1.67173         7.01739
     2022.36550        -0.71346         7.20705
     2022.36824        -2.94819         7.09077
     2022.37097        -3.32992         6.97788
     2022.37371       -10.82465         6.92821
     2022.37645       -15.20938         7.11786
     2022.37919       -16.25311         7.27591
     2022.38193        -2.22584         7.00610
     2022.38466        -2.65657         6.86386
     2022.38740       -17.33030         6.83450
     2022.39014        -6.75103         6.80402
     2022.39288        -2.54476         7.07045
     2022.39561        -0.13249         6.98239
     2022.39835         0.98478         7.02416
     2022.40109        -1.10695         7.00046
     2022.40383         7.20932         7.03320
     2022.40657         4.27859         7.21382
     2022.40930        -6.75614         7.22173
     2022.41204         5.05813         7.09416
     2022.41478         3.13340         6.84805
     2022.41752         4.49167         7.29398
     2022.42026         4.72594         7.25672
     2022.42299         6.05821         7.17996
     2022.42573        13.02848         7.57734
     2022.42847         8.60675         7.14157
     2022.43121         9.04302         7.17996
     2022.43394         6.52229         7.17431
     2022.43668         0.82656         7.05577
     2022.43942         4.28083         7.09190
     2022.44216         1.08410         7.18899
     2022.44490         8.09937         7.48589
     2022.44763        13.25464         6.87176
     2022.45037         6.42191         6.95530
     2022.45311        -3.16681         6.88079
     2022.45585         8.39946         6.97336
     2022.45859        -6.32327         6.92256
     2022.46132         2.44800         6.93272
     2022.46406         3.06727         6.82886
     2022.46680         2.93554         6.77919
     2022.46954         3.67781         6.77467
     2022.47227       -11.21292         6.94288
     2022.47501         5.12635         7.19012
     2022.47775         4.85062         7.02868
     2022.48049         0.52489         6.87740
     2022.48323        10.02016         6.85031
     2022.48596        16.17643         6.95417
     2022.48870        -9.45730         6.96094
     2022.49144         2.41797         6.90337
     2022.49418         4.80424         6.93837
     2022.49692        -4.29249         7.05916
     2022.50787         9.29659         7.34704
     2022.51060        -2.32414         7.35494
     2022.51334         5.81513         7.12125
     2022.51608        -4.31760         7.02642
     2022.51882        -6.50333         7.08851
     2022.52156       -11.71106         7.01513
     2022.52429        -2.13079         7.14496
     2022.52703         7.71248         7.21721
     2022.52977        10.13675         7.09980
     2022.53251         4.31302         7.05690
     2022.53525       -13.66571         7.21269
     2022.53798         2.76356         6.94288
     2022.54072        -9.21417         7.26801
     2022.54346        -7.56890         7.00949
     2022.54620        -2.34263         7.15060
     2022.54893        -4.82535         6.92143
     2022.55167         0.89292         7.04223
     2022.55441         1.55319         7.17770
     2022.55715         2.07346         7.06481
     2022.55989        -3.06427         7.06932
     2022.56262        -6.99600         6.94401
     2022.56536       -10.14473         6.94401
     2022.56810        10.25254         6.95982
     2022.57084        -1.89719         6.99820
     2022.57357         1.85608         7.07045
     2022.57631       -11.87665         7.08513
     2022.57905       -11.27538         6.78935
     2022.58179         6.20489         7.01852
     2022.58453        15.96016         7.44412
     2022.58726        -3.41157         7.37413
     2022.59000       -12.06730         7.23866
     2022.59274        -5.48703         6.94965
     2022.59548         0.87624         6.83789
     2022.59822        -4.83649         6.88982
     2022.60095        -2.89022         6.91917
     2022.60369         7.84205         7.44187
     2022.60643         7.43832         7.19576
     2022.60917         4.38659         7.03432
     2022.61190         5.23586         7.20931
     2022.61464        13.79913         6.98239
     2022.61738        12.97440         6.87627
     2022.62012        -2.79133         6.94175
     2022.62286         0.84594         6.91014
     2022.62559         0.96921         6.90901
     2022.62833         5.72948         6.85483
     2022.63107         4.35875         7.23640
     2022.63381        10.94002         6.94514
     2022.63655         4.53329         6.79386
     2022.63928        10.54156         6.92708
     2022.64202         8.59783         7.65636
     2022.64476        13.39811         7.41703
     2022.64750         9.08838         7.07948
     2022.65023         8.23165         6.91466
     2022.65297        14.33392         7.16528
     2022.65571         6.07319         7.06932
     2022.65845        13.88246         6.76000
     2022.66119        11.84573         6.83225
     2022.66392        12.37600         7.03884
     2022.66666         8.38327         6.90788
     2022.66940         9.86254         6.89547
     2022.67214         6.98381         6.90676
     2022.67488        11.58408         6.87740
     2022.67761        14.38935         6.92708
     2022.68035        10.02262         6.87853
     2022.68309        19.48389         7.00271
     2022.68583        11.90916         7.37526
     2022.68856        15.75043         6.96998
     2022.69130        16.13970         6.89885
     2022.69404         8.32597         6.95530
     2022.69678         8.14524         7.15738
     2022.69952         6.09051         7.00610
     2022.70225        13.46278         7.19689
     2022.70499        11.18905         7.12577
     2022.70773        14.78432         7.07835
     2022.71047         8.76759         6.84241
     2022.71321        20.32386         7.00610
     2022.71868        12.08040         6.85483
     2022.72142        20.34867         7.00159
     2022.72416        12.73394         7.26237
     2022.72689         9.34821         7.04561
     2022.72963        17.78748         6.85483
     2022.73237        10.16375         6.87515
     2022.73511         5.72802         6.83338
     2022.73785        10.13829         7.00949
     2022.74058        15.73057         7.30978
     2022.74332        16.78284         7.06481
     2022.74606        13.51511         6.86386
     2022.74880        11.78338         6.86273
