# ================= DQRFIT RESULTS ================
# INPUT FILE: series/TRAI.rad
# OUTPUT: LDETRENDED
# FILTER FUNCTION: f(t)
# f(t)=+line(t)+annual(t)
# line(t)=+P 1+P 2*t
# annual(t)=+P 3*sin(2*pi*t+P 4)
# heav(t)=(t<0?0:1)
# TOTAL OBSERVATIONS MTOT= 2018
# INITIAL TIME INTERVAL= 2022.7488 - 2017.2074 =  5.5414
# TOTAL OBSERVATIONS AFTER PREFILTER M= 1975
# TIME-SPAN= 2022.7488 - 2017.2074 =  5.5414
# OBSERVATIONS: USED M=  1975 REJECTED MTOT-M=    43 %USED=   97.8692
# N=  4 PARAMETERS
# MAXSIG= 175.00000
# MAXRES=  29.84693
# SCALE FACTOR FOR LENGTHS: SCL=  10.00000
# SCALE FACTOR FOR SIGMAS: SCLSIG=   1.00000
# CHI^2=   2287.389 DOF=  1971 CHI^2/DOF=   1.16052
# RMS=      6.442 SDEV=      6.443 MEAN=    0.03175
#  P #       PARAMETER +-    SIGMA %error PARAMETER NAME
# P 1 =     -1919.37026 +-  178.608   9.31 YZERO                              
# P 2 =         0.95353 +-    0.088   9.27 SLOPE                              
# P 3 =         6.31633 +-    0.198   3.13 ANNUAL AMPLITUDE                   
# P 4 =         2.59509 +-    0.037   1.44 ANNUAL PHASE                       
#       T            LDETRENDED       SIG_OBS
     2017.20739        -8.63351         6.07583
     2017.21013       -11.16212         6.09522
     2017.21286       -13.60573         6.11246
     2017.21560        -7.93534         6.13185
     2017.21834        -5.49796         6.00150
     2017.22108         0.39843         5.99073
     2017.22381        -3.46418         6.24173
     2017.22655        -5.04179         6.21157
     2017.22929        -3.61240         6.06829
     2017.23203        -8.59001         5.99611
     2017.23477        -9.61962         6.06829
     2017.23750        -9.96523         5.99504
     2017.24024        -6.65284         6.08014
     2017.24298        -9.99545         6.05105
     2017.24572        -7.69206         6.04675
     2017.24846        -4.12667         6.07368
     2017.25667        -5.74650         6.05860
     2017.25941       -14.76411         6.18356
     2017.26214       -14.02973         6.10707
     2017.26488        -6.72634         6.04136
     2017.26762         0.43205         6.03813
     2017.27036        -5.24556         6.05536
     2017.27310        -9.90917         6.25466
     2017.27583       -14.57978         6.15232
     2017.27857       -10.06639         6.13077
     2017.28131       -18.56800         6.06398
     2017.28405       -14.47061         6.09953
     2017.28679        -3.77622         6.09953
     2017.28952        -8.88483         6.09307
     2017.29226        -5.10544         6.08014
     2017.29500       -11.36605         6.02951
     2017.29774        -9.25866         6.09415
     2017.30047       -19.47427         6.10276
     2017.30321       -12.92988         6.10492
     2017.30595       -10.66450         6.15447
     2017.30869        -8.69511         6.07476
     2017.31143       -10.35772         6.08553
     2017.31416       -10.64933         6.12000
     2017.31690        -8.58494         5.97457
     2017.31964        -7.40155         6.17710
     2017.32238       -16.31016         6.21265
     2017.32512       -11.44077         5.98965
     2017.32785        -7.27138         6.07368
     2017.33059       -11.27199         5.98534
     2017.33333       -12.58360         6.01981
     2017.33607        -8.95621         6.10276
     2017.33880        -9.82782         6.06829
     2017.34154       -11.79943         6.45072
     2017.34428       -15.54904         6.01335
     2017.34702       -11.25965         6.03166
     2017.34976        -9.01427         5.99073
     2017.35249        -7.42488         6.09307
     2017.35523        -7.54149         5.99827
     2017.35797       -12.70810         6.14155
     2017.36071        -8.57971         6.09846
     2017.36344       -10.59732         6.06075
     2017.36618        -3.01093         6.05644
     2017.36892        -3.00554         6.02412
     2017.37166       -16.82515         6.08230
     2017.37440        -6.86076         6.12323
     2017.37713        -7.23237         6.13077
     2017.37987       -17.42398         6.11569
     2017.38261        -8.32259         6.05752
     2017.38535       -13.48720         6.07906
     2017.38809       -12.56581         6.09522
     2017.39082       -10.17142         6.14586
     2017.39356       -12.28504         6.35485
     2017.39630         0.93635         6.04890
     2017.39904        -5.23726         6.00042
     2017.40177        -6.34887         6.04890
     2017.40451        -3.11648         6.32791
     2017.40725       -10.25609         6.08768
     2017.40999        -5.30470         6.02089
     2017.41273        -6.84131         6.21588
     2017.41546        -5.78192         6.20080
     2017.41820       -18.12253         6.18679
     2017.42094       -12.50114         6.18033
     2017.42368        -5.78275         6.12862
     2017.42642        -0.78136         6.17386
     2017.42915        -1.51397         6.08553
     2017.43189         1.49942         6.13939
     2017.43463        -4.19719         6.14909
     2017.43737        -6.51781         6.08014
     2017.44010         1.86658         6.08984
     2017.44284        -0.17703         6.09091
     2017.44558        -1.11264         6.06721
     2017.44832         0.77875         6.01335
     2017.45106        -3.31586         6.13077
     2017.45379         6.33753         6.13939
     2017.45653        -0.16908         6.40332
     2017.45927        -2.64169         6.16309
     2017.46201        -0.09930         6.02951
     2017.46475       -11.02491         6.18571
     2017.46748        -1.39752         6.05860
     2017.47022        -7.32813         6.25574
     2017.47296         4.79526         6.13293
     2017.47570        -4.60635         6.04028
     2017.47843       -10.12897         6.12646
     2017.48117        -4.72258         6.33546
     2017.48391         0.33881         6.08768
     2017.48665        -2.29380         6.26436
     2017.48939        -0.73241         6.15878
     2017.49212        -2.08402         6.07691
     2017.49486        -2.75163         6.17171
     2017.49760         2.94876         6.22988
     2017.50034         4.53315         6.14478
     2017.50308         1.94554         6.12539
     2017.50581         1.98193         6.03705
     2017.50855        -6.20068         6.20726
     2017.51129        -3.22629         6.26436
     2017.51403        -5.91390         6.41302
     2017.51676        -0.89751         6.17817
     2017.51950        -5.37712         6.12323
     2017.52224         6.34626         6.12216
     2017.52498        -3.02635         6.19002
     2017.52772         1.06304         6.29452
     2017.53045        -1.65457         6.15340
     2017.53319        -2.01718         6.15232
     2017.53593        -3.32579         6.33007
     2017.53867        -1.58340         6.21157
     2017.54141        14.70199         6.09307
     2017.54414         1.45238         6.14155
     2017.54688         4.46877         6.07260
     2017.54962        -2.03184         6.19756
     2017.55236        -0.86345         6.08230
     2017.55509         7.77094         6.16094
     2017.55783        -6.18167         6.23096
     2017.56057        -0.57628         6.26436
     2017.56331         3.00611         6.13724
     2017.56605        -0.67951         6.15663
     2017.56878         4.06388         6.18571
     2017.57152         1.73427         6.24496
     2017.57426        -0.27634         6.05860
     2017.57700         2.71805         6.12539
     2017.57974        -0.86956         6.01981
     2017.58247        -4.15417         6.13185
     2017.58521        -6.34878         6.15447
     2017.58795        -3.47339         6.38070
     2017.59069         2.16400         6.45719
     2017.59342         1.88239         6.08014
     2017.59616         2.84278         6.16417
     2017.59890        -0.14683         6.13616
     2017.60164        -0.41644         6.22126
     2017.60438        -5.49305         6.08661
     2017.60711         4.46334         6.10923
     2017.60985         2.58672         6.28482
     2017.61259         5.28511         6.14478
     2017.61533         0.91350         6.39363
     2017.61807        -4.19711         6.40009
     2017.62080         0.91828         6.07476
     2017.62354         5.74567         6.15878
     2017.62628         2.83506         6.35161
     2017.62902         6.29245         6.60047
     2017.63175         6.04984         6.16848
     2017.63449         1.22123         6.10276
     2017.63723         1.90962         6.07152
     2017.63997         5.47301         6.26759
     2017.64271         0.22340         6.23850
     2017.64544         4.50279         6.29775
     2017.64818         4.64818         6.38070
     2017.65092         7.53257         6.04782
     2017.65366         7.07195         6.08984
     2017.65639        -1.31366         6.15555
     2017.65913        -1.67327         6.17494
     2017.66187         5.17912         6.07368
     2017.66461         8.84951         6.27297
     2017.66735         9.65390         6.44103
     2017.67008        10.27129         6.13077
     2017.67282         8.57168         6.29236
     2017.67556         3.14707         6.12323
     2017.67830         7.98246         6.05213
     2017.68104         5.43585         6.11785
     2017.68377         7.00124         6.33222
     2017.68652        15.20462         6.38393
     2017.68925        11.76802         6.17925
     2017.69199         1.01541         6.22019
     2017.69472        20.40480         6.10169
     2017.69746        17.82418         6.22881
     2017.70020         4.13257         6.39901
     2017.70294        16.82096         6.38393
     2017.70568        10.73035         6.24389
     2017.70841        11.92074         6.02305
     2017.71115        11.85513         6.10061
     2017.71389        11.80252         6.24604
     2017.71663        13.87991         6.01120
     2017.71937        11.65630         6.06614
     2017.72210         5.74569         6.12431
     2017.72484         4.89808         6.02089
     2017.72758        11.26347         6.07691
     2017.73032         7.87586         6.12646
     2017.73305         7.40725         6.05644
     2017.73579         7.76364         6.04244
     2017.73853         0.46202         6.29883
     2017.74127         1.15841         6.09522
     2017.74401         9.97480         6.07260
     2017.74674         6.37419         6.12754
     2017.74948        11.45358         6.00796
     2017.75222         7.70697         6.13939
     2017.75496         5.01536         6.03597
     2017.75770        -1.61925         6.29236
     2017.76043         6.36714         6.05429
     2017.76317        14.29953         6.11031
     2017.76591        11.36492         6.20295
     2017.76865        10.13031         6.11031
     2017.77138         7.11970         6.14693
     2017.77412         8.41609         6.17171
     2017.77686        13.14148         6.07799
     2017.77960        11.46587         6.15878
     2017.78234        -0.94175         6.13939
     2017.78507         3.41164         6.10600
     2017.78781         6.61303         6.12431
     2017.79055        11.66242         6.13293
     2017.79329         6.65981         6.30852
     2017.79603        11.54620         6.22126
     2017.79876         1.99059         6.27297
     2017.80150        14.44898         6.26436
     2017.80424         6.16937         6.07691
     2017.80698         2.43776         6.16848
     2017.80971         2.15915         6.21696
     2017.81245         1.48454         6.13508
     2017.81519        -0.37807         6.21265
     2017.81793        -1.44468         6.03490
     2017.82067        -3.66129         6.11031
     2017.82340         4.87410         6.11138
     2017.82614         1.74848         6.22342
     2017.82888        -5.58613         6.15016
     2017.83162         9.37826         6.11785
     2017.83436         8.21265         6.05860
     2017.84257         0.67882         6.16417
     2017.84531         9.48821         6.26543
     2017.84804         2.35960         6.05105
     2017.85078         5.34699         6.06829
     2017.85352         6.98938         6.15447
     2017.85626         2.53977         6.30745
     2017.85900         1.86116         6.43564
     2017.86173         6.29755         6.19756
     2017.86447         2.81994         6.00258
     2017.86721         2.19833         6.13077
     2017.86995        -0.34929         6.10492
     2017.87269         7.16210         6.12970
     2017.87542         8.07849         6.09307
     2017.87816        10.56488         6.09415
     2017.88090         5.02627         6.04028
     2017.88364         7.57466         6.19972
     2017.88637         1.33705         6.13185
     2017.88911         2.43844         6.28913
     2017.89185        -5.69217         6.20726
     2017.89459        -0.86278         6.23204
     2017.89733         3.24461         6.10815
     2017.90006         6.18300         6.02305
     2017.90280        -1.85361         6.07691
     2017.90554        11.03578         6.18895
     2017.90828         9.53817         6.12862
     2017.91102        -2.37444         6.36777
     2017.91375         0.26894         6.08122
     2017.91649         0.95533         6.06506
     2017.91923         6.98372         6.23742
     2017.92197         1.82611         6.17171
     2017.92470         4.91550         6.03920
     2017.92744        -1.72511         6.03705
     2017.93018        -3.78972         6.22234
     2017.93292        -0.59333         6.04782
     2017.93566         1.12006         6.01874
     2017.93839         3.67645         6.03920
     2017.94113         9.83484         6.12646
     2017.94387         1.45723         6.04890
     2017.94661         6.05862         6.03490
     2017.94935         4.33301         6.22881
     2017.95208         1.51640         6.21049
     2017.95482         9.33879         6.08230
     2017.95756         6.42617         6.14155
     2017.96030         7.48456         6.07583
     2017.96303        -9.55605         6.15447
     2017.96577        21.09234         6.54552
     2017.97125         6.43112         5.96056
     2017.97399         4.64651         6.00796
     2017.97672         6.15590         6.03490
     2017.97946         6.60329         6.07045
     2017.98220         7.28068         5.98857
     2017.98494         2.68007         5.97888
     2017.98767        -2.48454         6.05213
     2017.99041         4.22985         5.95949
     2017.99315         4.43424         6.02520
     2017.99589        10.01163         6.00796
     2017.99863        15.06402         5.93902
     2018.00136         6.44140         6.02843
     2018.00410         2.39579         5.92501
     2018.00684        -1.90982         6.03274
     2018.00958        -8.59643         6.08014
     2018.01232        -5.34804         6.09630
     2018.01779         6.00274         6.06290
     2018.02053        -3.63987         6.03920
     2018.02327        15.53652         6.64787
     2018.02600         4.31691         6.20187
     2018.02874         3.49430         6.03920
     2018.03148        -2.78731         6.11246
     2018.03422        -2.53892         6.05105
     2018.03696        -5.21953         6.12754
     2018.03969        -1.82514         5.94656
     2018.04243        -7.16276         6.08876
     2018.04517       -12.66437         6.04675
     2018.04791       -17.30498         6.17279
     2018.05065        11.89141         6.16525
     2018.05338         2.83980         5.99827
     2018.05612        -3.85081         6.06075
     2018.05886       -10.17742         6.04567
     2018.06160        -7.80403         6.20834
     2018.06981         0.99014         6.05429
     2018.07255        17.84753         6.14586
     2018.07529        -4.16808         6.30421
     2018.07802       -13.18069         6.14047
     2018.08076        -6.37730         6.27836
     2018.08350         9.96809         6.17710
     2018.08624        -7.53753         6.18571
     2018.08898        -9.87114         6.40332
     2018.09171       -11.48875         6.21803
     2018.09445        -4.07236         6.16632
     2018.09719         5.45603         6.40763
     2018.09993        -5.44858         6.18033
     2018.10266       -11.37419         6.19756
     2018.10540       -11.70180         6.45180
     2018.10814       -10.94041         6.18895
     2018.11088        -5.33102         6.11892
     2018.11362        -0.81163         6.13724
     2018.11635        -6.19924         6.14478
     2018.11909        -1.69585         6.26759
     2018.12183        10.62454         6.24820
     2018.12457        -4.87707         6.14370
     2018.12731        -1.55968         6.08661
     2018.13004         5.52870         6.29560
     2018.13278        -6.88691         6.04675
     2018.13552         2.03748         6.03274
     2018.13826         2.54387         6.05644
     2018.14099        -1.44774         6.06937
     2018.14373        -1.94335         6.05860
     2018.14647        -5.68796         6.33007
     2018.14921         6.44843         6.22881
     2018.15195         8.14882         6.06290
     2018.15468         0.24421         6.11785
     2018.15742         5.68160         6.09522
     2018.16016        -3.09601         6.11354
     2018.16290        15.50638         6.58862
     2018.16564       -10.08923         6.28482
     2018.16837        -7.73084         6.11354
     2018.17111        -8.75245         6.16417
     2018.17385        -1.10307         6.15663
     2018.17659       -11.06268         6.03813
     2018.17932        -7.63129         6.06183
     2018.18206         2.85810         6.40117
     2018.18480       -11.68151         6.28806
     2018.18754        -3.85012         6.18141
     2018.19028        -8.31473         6.06075
     2018.19301        -6.64334         6.14155
     2018.19575        -2.27595         6.07799
     2018.19849        -4.50356         6.07260
     2018.20123        -1.34617         6.21049
     2018.20397         5.40322         6.11246
     2018.20670         0.88061         6.16525
     2018.20944        -1.40100         6.12646
     2018.21218        -2.78861         6.03382
     2018.21492       -16.34722         6.06183
     2018.21765        -0.44384         6.02089
     2018.22039        -8.64145         6.17494
     2018.22313       -12.23206         6.09091
     2018.22587        -4.25267         6.31714
     2018.22861        -7.73928         5.95410
     2018.23134        -3.70489         6.03382
     2018.23408       -13.77650         6.13508
     2018.23682         0.07189         6.17817
     2018.23956        -3.78872         6.01766
     2018.24230        -6.34033         6.00473
     2018.24503        -2.92194         5.99827
     2018.24777        -4.09955         5.97995
     2018.25051        -4.87116         6.05213
     2018.25325        -5.99077         5.96595
     2018.25598        -7.48838         6.03597
     2018.25872        -9.03599         6.07260
     2018.26146       -12.65561         6.10061
     2018.26420        -9.43422         6.16309
     2018.26694       -11.44583         5.97457
     2018.26967       -12.58644         6.11031
     2018.27241        -9.10405         5.98426
     2018.27515        -1.15266         5.98965
     2018.27789        -5.82627         6.19433
     2018.28062        -7.70288         6.20941
     2018.28336       -14.52749         5.95302
     2018.28610       -16.42310         6.00042
     2018.28884       -11.61471         5.97888
     2018.29158         0.45568         6.13508
     2018.29431       -17.69293         6.13724
     2018.29705       -13.98754         5.99180
     2018.29979        -7.91115         6.09307
     2018.30253       -13.59177         6.02843
     2018.30527        -6.30638         5.97026
     2018.30800       -11.70099         6.00581
     2018.31074        -9.00860         5.98534
     2018.31348        -6.44221         5.96703
     2018.31622       -10.39282         5.97134
     2018.31895        -6.77643         6.05644
     2018.32169       -12.13104         6.01335
     2018.32443       -13.02165         5.94764
     2018.32717       -13.07126         6.00258
     2018.32991       -12.24587         6.10061
     2018.33264        -9.38548         6.02843
     2018.33538        -8.16209         6.44857
     2018.33812        -4.93970         6.35161
     2018.34086        -9.95431         6.09630
     2018.34360       -11.82592         6.08122
     2018.34633        -7.22354         6.05321
     2018.34907       -17.62315         6.19756
     2018.35181        -7.83376         6.08768
     2018.35455        -9.25937         6.04459
     2018.35728        -6.84098         5.96595
     2018.36002        -8.63759         5.99827
     2018.36276        -7.88920         6.09953
     2018.36550        -5.72181         6.09307
     2018.36824        -5.14142         6.07152
     2018.37097        -6.25503         6.17494
     2018.37371       -11.50164         6.07476
     2018.37645       -13.59525         6.26651
     2018.37919        -1.93186         6.02305
     2018.38193       -11.08347         6.04675
     2018.38466        -8.19308         6.03274
     2018.38740       -13.13269         6.04244
     2018.39014        -3.93231         5.99719
     2018.39288        -7.07692         6.08553
     2018.39561         6.19647         6.16632
     2018.39835         5.93186         6.12216
     2018.40109         1.30925         6.01443
     2018.40383        -0.91236         6.07583
     2018.40657         0.12103         6.01658
     2018.40930         0.32242         6.18356
     2018.41204         5.58381         6.00473
     2018.41478        -2.81380         5.99504
     2018.42299        -4.45863         6.11785
     2018.42573        -0.30024         5.98642
     2018.42847         3.68615         5.95410
     2018.43121         1.30954         6.00365
     2018.43394        -1.90008         6.09415
     2018.43668        -3.54569         6.05860
     2018.43942        -2.52830         5.99396
     2018.44216         5.94209         6.00473
     2018.44490        -5.30852         5.97241
     2018.44763        -1.50113         6.01874
     2018.45037        -2.01974         5.99396
     2018.45311        -2.37035         5.97457
     2018.45585        -4.97596         5.99073
     2018.45859        -1.20257         6.01981
     2018.46132        -4.78718         6.02520
     2018.46406        -8.51579         6.07368
     2018.46680        -5.07540         5.95949
     2018.46954        -0.15801         6.05536
     2018.47227         1.31538         6.24712
     2018.47501         2.69277         5.96487
     2018.47775        -4.87685         5.98103
     2018.48049        -8.17246         6.30745
     2018.48323         3.01093         6.07476
     2018.48596        -1.35368         6.02089
     2018.48870         3.69771         6.01012
     2018.49144        -8.31890         6.01120
     2018.49418        -1.13751         6.14370
     2018.49692         2.47388         6.24496
     2018.49965         5.86227         6.05321
     2018.50239         1.28566         5.93902
     2018.50513        -9.19695         6.06937
     2018.50787         3.86444         6.00150
     2018.51060        -5.47117         6.09307
     2018.51334        -3.19478         6.13724
     2018.51608         1.45761         6.08122
     2018.51882         5.35100         6.07476
     2018.52156        -6.79962         6.15447
     2018.52429        -8.55823         6.05321
     2018.52703        -5.13784         5.99396
     2018.52977         7.62555         6.02735
     2018.53251        -2.46906         6.22450
     2018.53525         6.44933         6.00689
     2018.53798         0.48372         6.04244
     2018.54072         1.20811         6.02843
     2018.54346         1.63150         6.05752
     2018.54620         1.03789         6.14693
     2018.54893        10.38928         6.08014
     2018.55167         2.15667         6.18464
     2018.55441        -3.63494         5.97134
     2018.55715         0.29545         6.22234
     2018.55989        -2.32516         6.36454
     2018.56262        -1.55677         6.18571
     2018.56536        -0.37539         6.12539
     2018.56810         8.49000         6.07045
     2018.57084         1.77639         6.27082
     2018.57357        -9.06822         6.32791
     2018.57631        -7.14583         6.49812
     2018.57905        -1.15644         6.41302
     2018.58179         3.58595         6.20726
     2018.58453         8.47834         6.51644
     2018.58726         2.00273         6.22773
     2018.59000         1.93412         6.03597
     2018.59274        -2.81649         6.09307
     2018.59548         6.45890         6.08014
     2018.59822         8.55629         6.07368
     2018.60095         6.69468         6.08553
     2018.60369         5.83007         6.05429
     2018.60643         1.83445         6.10384
     2018.60917         7.25484         6.17063
     2018.61190        11.06123         6.01874
     2018.61464        -0.63338         6.04351
     2018.61738         5.32201         6.02305
     2018.62012         0.67040         5.96380
     2018.62286         5.43379         6.11031
     2018.62559         9.80618         6.12539
     2018.62833         5.19457         6.12108
     2018.63107         5.34196         5.95625
     2018.63381        -3.83165         6.26328
     2018.63655        -1.19426         6.05860
     2018.63928         6.48913         6.24820
     2018.64202        15.78952         6.22881
     2018.64476        13.02191         6.16956
     2018.64750         5.24230         6.02520
     2018.65023        10.39368         6.54768
     2018.65297        10.12607         6.07152
     2018.65571        11.83746         6.10600
     2018.65845         8.18285         6.03705
     2018.66119         6.95524         6.11569
     2018.66392         7.05663         6.04675
     2018.66666        16.52902         6.23311
     2018.66940        10.61041         6.17602
     2018.67214        14.50380         6.25466
     2018.67488         4.86419         6.15555
     2018.67761         7.75858         5.98750
     2018.68035        -0.16103         6.12323
     2018.68309         3.73736         6.11138
     2018.68583         4.92175         6.23958
     2018.68856         8.29714         6.17063
     2018.69130         6.13953         6.18571
     2018.69404         8.23691         6.19649
     2018.69678         6.34430         6.11569
     2018.69952         3.51869         6.19756
     2018.70225        -1.96492         6.21372
     2018.70499         3.76647         6.00473
     2018.70773        -5.18514         6.09522
     2018.71047        -0.85575         6.10815
     2018.71321         5.13864         6.07906
     2018.71594         3.21303         6.01120
     2018.71868        -2.52058         6.09846
     2018.72142        -7.67919         6.09307
     2018.72416         1.20720         6.14801
     2018.72689         5.40659         6.09953
     2018.72963         0.40998         6.09091
     2018.73237        -1.16763         6.08768
     2018.73511       -10.11124         6.06075
     2018.73785        13.49314         6.28590
     2018.74058         0.72053         6.08230
     2018.74332         5.17692         6.01227
     2018.74606         7.50131         6.12970
     2018.74880         6.09570         6.11031
     2018.75154         2.16309         6.25789
     2018.75427         5.42548         6.04890
     2018.75701         4.11487         6.12431
     2018.75975         2.45326         6.00689
     2018.76249         5.38865         6.05321
     2018.76522         2.53104         6.10061
     2018.76796         5.01743         5.97995
     2018.77070        -4.83518         6.10492
     2018.77344         7.77421         6.09199
     2018.77618         9.70860         6.12000
     2018.77891         9.71199         6.12646
     2018.78165         4.08137         6.28482
     2018.78439         1.50476         6.08876
     2018.78713         1.56415         6.13616
     2018.78987         1.02954         6.12108
     2018.79260        -2.61007         6.03813
     2018.79534         9.77132         6.03490
     2018.79808        -0.01229         6.06290
     2018.80082         4.91110         5.99073
     2018.80355         3.52149         6.05429
     2018.80629         8.49788         6.28806
     2018.80903         7.04627         5.95841
     2018.81177         5.12266         6.33976
     2018.81451        12.07005         6.05860
     2018.81724        -2.80656         6.09953
     2018.81998         6.31383         6.18787
     2018.82272         2.08022         6.08984
     2018.82546         5.57860         5.94225
     2018.82820         1.01099         6.07691
     2018.83093         1.34138         6.01766
     2018.83367         4.70177         5.99827
     2018.83641         7.53516         6.01658
     2018.83915        12.06455         6.05213
     2018.84188         6.03594         6.02197
     2018.84462        13.58033         5.99073
     2018.84736         2.70672         5.92932
     2018.85010         3.91411         5.97888
     2018.85284         5.54450         5.92609
     2018.85557        -3.38111         5.99504
     2018.85831        -7.17872         5.93040
     2018.86105         5.30867         5.91424
     2018.86379         1.48106         6.11138
     2018.86653        10.75044         6.01120
     2018.86926         0.58883         6.07368
     2018.87200        10.11522         5.98426
     2018.87474         4.07561         5.92286
     2018.87748         6.90300         6.03059
     2018.88021         5.91739         6.25789
     2018.88295         9.75978         6.08553
     2018.88569         7.94317         6.01012
     2018.88843         5.51356         6.05752
     2018.89117         2.84795         6.20941
     2018.89390         4.53934         6.07045
     2018.89664        -2.13227         6.33222
     2018.89938         9.80912         6.11031
     2018.90212         6.26751         6.04998
     2018.90759         5.54629         6.09522
     2018.91033         5.33267         6.01550
     2018.91307        13.50206         6.15016
     2018.91581        15.43145         6.02412
     2018.91854        13.38184         6.11031
     2018.92128         4.85623         6.04351
     2018.92402        10.61462         6.00796
     2018.92676        11.95701         6.00581
     2018.92950        14.85540         6.04244
     2018.93223         5.90679         6.18571
     2018.93497         3.47018         6.11461
     2018.93771         7.98857         6.17494
     2018.94045         3.76396         6.11354
     2018.94318        16.30635         5.90347
     2018.94866         3.26113         5.98103
     2018.95140         6.66852         6.29129
     2018.95414        18.97390         6.03490
     2018.95687         1.49229         5.95625
     2018.95961         1.09768         6.08553
     2018.96235        -2.08893         6.05213
     2018.96509         1.28346         6.04890
     2018.96783        -0.45715         6.11569
     2018.97056        10.68124         6.03813
     2018.97330        11.53963         6.08984
     2018.97604         8.50302         5.97995
     2018.97878       -12.13859         6.17710
     2018.98151        -9.69720         6.07152
     2018.98425         7.43119         6.04567
     2018.98699         0.09958         6.19649
     2018.98973         1.09997         6.27728
     2018.99247         8.22736         6.04890
     2018.99794         2.43713         5.99288
     2019.00068         6.28452         6.10600
     2019.00342         9.66791         6.13508
     2019.00616         5.45930         6.02628
     2019.00889         2.69669         6.07368
     2019.01163         7.56008         6.00042
     2019.01437         4.85247         6.01012
     2019.01711        21.09786         6.09630
     2019.01984        -3.56075         6.26759
     2019.02258        -1.56236         6.04028
     2019.02806        -7.11558         6.10384
     2019.03080         2.34781         5.98857
     2019.03353        -5.02180         6.01874
     2019.03627        -7.32841         5.99935
     2019.03901        -3.48702         5.95195
     2019.04175        -2.32064         5.96703
     2019.04449         3.99775         6.06398
     2019.04722       -11.43786         6.20941
     2019.04996        -8.93447         6.03813
     2019.05270        -5.36008         6.28159
     2019.05544         1.61631         6.21803
     2019.05817         0.42270         6.44318
     2019.06365         9.61448         6.20187
     2019.06639       -12.83713         6.12539
     2019.06913         5.38426         6.17063
     2019.07186         0.57765         6.21803
     2019.07460        -1.33596         5.94764
     2019.07734        -0.06457         5.98965
     2019.08008         3.64482         5.95195
     2019.08282         4.85221         6.08553
     2019.08555         0.37959         6.03274
     2019.09103         2.42137         5.95195
     2019.09377         5.22876         5.94440
     2019.09650         5.41415         5.94440
     2019.09924         6.87254         5.94548
     2019.10198        -2.49607         6.00042
     2019.10472        -0.55168         5.97241
     2019.10746        -3.14129         6.03705
     2019.11019         2.54610         5.97888
     2019.11293         3.21149         6.04244
     2019.11567         3.74388         6.20403
     2019.11841        14.52527         5.89700
     2019.12115        14.13166         6.04675
     2019.12388        15.87105         6.00796
     2019.12662        10.19244         6.25035
     2019.12936        10.33182         5.97241
     2019.13210         2.89821         5.85822
     2019.13483         2.48360         5.99396
     2019.13757         3.54199         5.97995
     2019.14031        10.43538         6.04351
     2019.14305         7.05177         6.00689
     2019.14579         8.83916         5.99719
     2019.14852         2.69155         5.87654
     2019.15126         7.30094         5.95410
     2019.15400        -2.41367         5.98642
     2019.15674         0.68372         5.98642
     2019.15948         0.73711         6.03920
     2019.16221        -6.59650         5.99288
     2019.16495        -0.46611         5.92178
     2019.16769        -9.13872         5.97241
     2019.17043        -2.92934         5.95410
     2019.17316        -3.47995         6.02089
     2019.17590         0.82044         5.95302
     2019.17864         4.35983         6.05321
     2019.18138         4.70022         5.97026
     2019.18412        -9.00239         5.99396
     2019.18685        -0.12200         5.99611
     2019.18959         5.20939         5.94656
     2019.19233         1.05778         5.90670
     2019.19507        -1.16083         6.05967
     2019.19780        -3.76144         6.01658
     2019.20054        -4.53205         6.11031
     2019.20328        -8.70966         6.10169
     2019.20602        -6.09727         6.38932
     2019.20876       -12.60088         5.90131
     2019.21149        -9.71749         5.96810
     2019.21423        -4.21011         5.98857
     2019.21697        -0.68572         5.99396
     2019.21971        -1.86433         6.09415
     2019.22245         1.33906         6.01443
     2019.22518        -2.85655         5.88192
     2019.22792        -6.88716         5.93686
     2019.23066       -10.90877         6.01550
     2019.23340        -3.96338         5.97134
     2019.23613        -6.85299         5.92501
     2019.23887        -7.94460         5.99180
     2019.24161        -8.72821         6.25897
     2019.24435        -5.72682         6.07583
     2019.24709       -11.29543         6.06183
     2019.24982        -4.39604         5.89916
     2019.25256        -4.35165         6.11246
     2019.25530        -6.62326         5.99396
     2019.25804        -4.66388         5.94548
     2019.26078        -8.80349         5.95733
     2019.26351        -2.79910         6.12108
     2019.26625         1.15429         5.90778
     2019.26899       -10.36832         6.10384
     2019.27173         1.34207         6.27405
     2019.27446        -2.75054         5.98965
     2019.27720        -4.10415         6.03597
     2019.27994        -0.67976         5.87223
     2019.28268         5.96863         6.03705
     2019.28542         1.72402         5.91963
     2019.28815         2.43841         6.00042
     2019.29089         7.09080         6.04351
     2019.29363        -7.54981         5.95841
     2019.29637        -8.60242         6.04998
     2019.29911         7.10597         6.01766
     2019.30184        -4.22665         6.04998
     2019.30458        -4.90326         5.99504
     2019.30732         2.31013         6.11785
     2019.31006        -1.46348         6.06290
     2019.31279        -8.95109         6.05752
     2019.31553        -1.76870         5.88408
     2019.31827        -3.98631         5.99180
     2019.32101        -0.44692         5.94871
     2019.32375       -16.16253         5.95195
     2019.32648        -7.41914         5.92825
     2019.32922        -3.04775         5.88192
     2019.33196         0.68764         6.13185
     2019.33470        -5.29697         6.17063
     2019.33744        -4.88358         6.08230
     2019.34017        -6.84119         5.93148
     2019.34291        -2.29580         5.94979
     2019.34565        -3.41242         6.06721
     2019.34839        -8.33103         6.09522
     2019.35112       -13.21964         5.95625
     2019.35386        -5.00725         5.98534
     2019.35660        -2.85586         5.89270
     2019.35934        -3.91547         6.05105
     2019.36208         0.93192         5.96595
     2019.36481         4.18931         5.93363
     2019.36755       -14.79830         6.06829
     2019.37029       -10.06391         5.96272
     2019.37303        -5.20652         6.02951
     2019.37577        -4.14613         6.04675
     2019.37850        -2.04474         6.04459
     2019.38124         2.80865         5.95733
     2019.38398         4.19504         5.96272
     2019.38672        -5.01357         5.91963
     2019.38945        -7.56819         5.92286
     2019.39219        -1.75980         6.01981
     2019.39493        -7.26041         6.04244
     2019.39767        -9.24002         6.00258
     2019.40041        -2.02663         5.98103
     2019.40314        -6.46624         5.97134
     2019.40588         1.93815         6.00258
     2019.40862        -7.76146         6.03274
     2019.41136        -5.36207         6.04998
     2019.41410         0.98132         6.03490
     2019.41683        -2.03429         6.25466
     2019.41957        -2.74590         6.13724
     2019.42231         1.43949         6.11138
     2019.42505         6.37988         5.99180
     2019.42778         1.72027         6.21911
     2019.43052         4.09165         6.47119
     2019.43326        -6.14696         6.05321
     2019.43600        -7.80857         5.98103
     2019.43874        -5.35018         6.09091
     2019.44147        -7.03679         6.11461
     2019.44421         1.36560         6.21157
     2019.44695        -5.30201         6.26543
     2019.44969        -7.78262         6.46904
     2019.45243        -1.97023         6.12862
     2019.45516        -6.00484         6.16740
     2019.45790         1.72155         6.20080
     2019.46064         4.68394         6.27297
     2019.46338        12.90233         6.60370
     2019.46611         5.92672         6.36454
     2019.46885         5.03011         6.31930
     2019.47159         8.08150         6.16417
     2019.47433        -0.82212         6.36131
     2019.47707        -3.27673         6.21803
     2019.47980        -4.87934         6.26112
     2019.48254        -0.41795         6.22450
     2019.48528        -0.67256         6.27944
     2019.48802       -10.91517         6.30637
     2019.49076        -1.27878         6.13616
     2019.49349        -6.77739         6.06721
     2019.49623        -7.64400         6.03382
     2019.49897         1.87639         6.07799
     2019.50171         3.40978         6.07045
     2019.50444        -6.99983         6.57461
     2019.50718        -7.11444         6.03597
     2019.50992        -2.31005         6.04459
     2019.51266         0.72434         6.22342
     2019.51540        -6.64627         5.98319
     2019.51813        -4.97589         6.03059
     2019.52087       -11.69550         6.18895
     2019.52361       -11.62311         6.16740
     2019.52635        -4.32872         5.98642
     2019.52908        -2.18433         6.36346
     2019.53182        -7.22294         6.28051
     2019.53456        -4.17055         6.27836
     2019.53730         5.70184         6.32899
     2019.54004        -0.30077         6.21049
     2019.54277        -1.00538         6.48735
     2019.54551        -5.49699         6.42702
     2019.54825         2.48640         6.04890
     2019.55099        -7.36121         6.28590
     2019.55373        -6.96082         6.34407
     2019.55646         5.77857         6.36131
     2019.55920       -19.21704         6.84501
     2019.56194        -4.68266         6.00473
     2019.56468        -5.63627         6.14262
     2019.56741        -6.07188         6.18787
     2019.57015        -2.94249         6.07476
     2019.57289        -5.92710         6.08230
     2019.57563         4.31229         6.09307
     2019.57837        -0.01832         6.12754
     2019.58110        -7.35793         6.04244
     2019.58384       -10.20054         6.29991
     2019.58658       -14.74415         6.38286
     2019.58932         4.41724         6.02412
     2019.59206         7.56463         6.16094
     2019.59479        -2.07898         6.05860
     2019.59753        -4.50359         6.30314
     2019.60027        -7.08020         6.24173
     2019.60301        -1.92581         5.99180
     2019.60574         2.39057         6.32684
     2019.60848        -7.22504         6.48197
     2019.61122        -4.14365         6.04567
     2019.61396        -2.60026         6.10600
     2019.61670        -1.94787         6.17710
     2019.61943        -6.28348         6.17386
     2019.62217         4.36491         6.26974
     2019.62491         9.91430         6.11138
     2019.62765         7.84269         5.96056
     2019.63039         4.61208         6.07368
     2019.63312         2.02147         6.06075
     2019.63586         6.26886         6.04890
     2019.63860         2.37025         6.26974
     2019.64134         5.52164         6.08122
     2019.64407        -0.10597         6.34623
     2019.64681         2.57742         6.07583
     2019.64955        -4.72820         6.15771
     2019.65229         3.62519         5.99288
     2019.65503         4.15958         6.11246
     2019.65776         4.89097         6.10169
     2019.66050         2.32536         6.16632
     2019.66324        -4.08525         6.04028
     2019.66598        -6.23986         6.15986
     2019.66872         3.12853         6.01443
     2019.67145        -2.37708         5.94871
     2019.67419         7.63131        28.07702
     2019.67695        -4.07832         6.40332
     2019.67967        -3.04891         6.24389
     2019.68240        -5.31652         6.02197
     2019.68514        -0.04313         6.01550
     2019.68788         0.17326         6.23958
     2019.69062        -1.65935         6.18356
     2019.69336        -5.59997         6.06614
     2019.69609         2.43842         6.09630
     2019.69883         2.30981         6.12000
     2019.70157         5.61920         6.06398
     2019.70431        -3.68541         6.24173
     2019.70705        -0.40702         6.25574
     2019.70978        -5.09863         6.20080
     2019.71252        -6.40524         6.10600
     2019.71526         7.86515         6.18571
     2019.71800         0.10854         6.40009
     2019.72073         2.32093         6.50028
     2019.72347        -2.19368         6.01120
     2019.72621        -3.23329         6.21157
     2019.72895        11.58710         6.13616
     2019.73169         8.03049         6.05644
     2019.73442         3.98187         6.09307
     2019.73716         9.78926         6.04567
     2019.73990        -3.79235         6.30852
     2019.74264         4.45404         6.15124
     2019.74538         1.58243         5.97780
     2019.74811         4.86482         6.10492
     2019.75085         6.06121         6.05213
     2019.75359         3.48560         6.33330
     2019.75633         0.48199         6.20403
     2019.75906         5.07538         6.06721
     2019.76180        -1.90423         6.03059
     2019.76454         2.01216         6.20295
     2019.76728         6.07755         6.35054
     2019.77002        -0.85206         6.24389
     2019.77275         0.99133         6.40009
     2019.77549         1.55772         6.24927
     2019.77823        -0.15490         6.19541
     2019.78097         8.87149         6.15232
     2019.78371         3.63188         6.24604
     2019.78644        -4.43673         6.21588
     2019.78918         4.65866         6.34946
     2019.79192         7.22605         6.24281
     2019.79466        10.92544         6.48089
     2019.79739         4.03183         6.24820
     2019.80013         2.40222         6.10923
     2019.80287         2.39261         6.14478
     2019.80561        -6.48700         6.71142
     2019.80835         5.49339         6.23635
     2019.81108         3.18878         6.19649
     2019.81382        -1.33383         6.24712
     2019.81656         4.18856         6.11785
     2019.81930        -1.54005         6.04782
     2019.82203         6.22333         6.15447
     2019.82477        -3.07828         6.08230
     2019.82751        -3.37289         6.16740
     2019.83025        -0.12350         6.32576
     2019.83299         1.69189         6.24281
     2019.83572         4.58628         6.16309
     2019.83846        12.16967         6.15447
     2019.84120         5.31906         6.24712
     2019.84394         2.64345         6.34623
     2019.84668         3.45384         9.74611
     2019.84941         1.46023         6.06398
     2019.85215         9.98862         6.16632
     2019.85489         7.60101         6.22773
     2019.85763         2.63640         6.28698
     2019.86036         5.00679         6.14801
     2019.86310        -1.36182         6.13939
     2019.86584         9.01856         6.28590
     2019.86858         6.62595         6.34515
     2019.87132         7.74534         6.23850
     2019.87405         8.91873         6.10061
     2019.87679         1.11512         6.37208
     2019.87953         9.99851         6.17279
     2019.88227        10.10090         6.14909
     2019.88501        11.04229         6.21696
     2019.88774         7.09068         6.47012
     2019.89048        15.60007         6.12216
     2019.89322        11.02646         6.39147
     2019.89596         6.03085         6.28375
     2019.89869        10.42224         6.21588
     2019.90143        10.85963         6.02951
     2019.90417        11.07302         6.17817
     2019.90691         5.41341         6.00689
     2019.90965         3.53479         6.10815
     2019.91238        11.15118         6.09091
     2019.91512         9.79957         6.26436
     2019.91786        26.44496         6.13401
     2019.92607        10.93413         6.09846
     2019.92881         6.73752         6.19649
     2019.93155         7.60891         6.17925
     2019.93429         4.56830         6.13508
     2019.93702         1.37469         6.08984
     2019.93976         6.36508         6.07260
     2019.94250       -11.48753         6.25143
     2019.94524        25.76286         6.49274
     2019.94798         5.60725         6.25789
     2019.95071         6.85864         6.39363
     2019.95345         6.16402         6.14155
     2019.95619         7.64341         6.12539
     2019.95893         9.76380         6.23419
     2019.96167         5.44619         6.24820
     2019.96440         6.27058         6.29560
     2019.96988       -13.24964         6.13831
     2019.97262         5.02175         6.29991
     2019.97535         6.52814         6.11461
     2019.97809        -0.57647         6.10384
     2019.98083         4.41992         6.15016
     2019.98357         3.26731         6.11138
     2019.98631        -4.01730         6.11031
     2019.98904       -10.44891         6.25466
     2019.99178         6.76648         6.11031
     2019.99452         5.84887         6.18356
     2019.99726        19.82425         6.18679
     2020.00273        11.19003         6.36777
     2020.00547         3.76742         6.48197
     2020.00821        -2.85119         6.38716
     2020.01095         4.25520         6.48951
     2020.01368        -4.39841         6.59400
     2020.02190         3.31176         6.34300
     2020.02464         5.05515         6.28375
     2020.02737       -21.18846         6.36670
     2020.03011       -23.15707         6.92365
     2020.03285       -12.52268         6.54122
     2020.03559       -14.20529         6.16740
     2020.03833       -17.33591         6.18356
     2020.04106       -20.30852         6.35269
     2020.05201         4.45404         7.23498
     2020.05475         6.84943         6.22342
     2020.05749         3.71282         5.88085
     2020.06023        -7.34079         6.03490
     2020.06297        -9.13040         6.06075
     2020.06570        -4.91701         6.10061
     2020.06844        -3.57462         6.19864
     2020.07118         1.21077         6.03274
     2020.07392        -5.68484         6.04459
     2020.07666        -6.44145         6.07045
     2020.07939        -6.30406         6.08014
     2020.08213       -11.08968         6.07476
     2020.08487       -13.07929         6.16632
     2020.08761         1.11610         6.02951
     2020.09034         1.18949         5.98426
     2020.09308        -1.12112         5.98211
     2020.09582        -0.26373         6.09630
     2020.09856       -11.15834         6.14370
     2020.10677        -2.37317         6.21803
     2020.10951        -4.16178         6.00689
     2020.11225        -2.28239         6.10707
     2020.11498        -1.25800         6.10815
     2020.11772         1.60739         6.16417
     2020.12046         3.10578         6.19649
     2020.12320         0.76917         6.04351
     2020.12594        -0.63045         5.99288
     2020.12867        -4.95806         6.09415
     2020.13141        -3.29867         6.19326
     2020.13415        -3.21928         5.95087
     2020.13689        -0.70889         6.15663
     2020.13963        -1.97650         6.09307
     2020.14236        -1.47411         5.95625
     2020.14510        10.10828         6.47550
     2020.14784        -1.07433         6.12216
     2020.15058        -5.14594         6.03705
     2020.15331        -7.05155         6.16632
     2020.15605        -8.14816         5.94656
     2020.15879        -2.74677         6.06506
     2020.16153        -0.28438         6.07368
     2020.16427         7.23301         6.01120
     2020.16700         1.49940         6.08661
     2020.16974        -1.27622         6.14586
     2020.17248       -12.98083         6.34838
     2020.17522        -0.31344         5.97457
     2020.17796        -0.46605         6.00796
     2020.18069       -10.82366         5.95625
     2020.18343        -9.52627         6.02197
     2020.18617        -7.36188         6.07260
     2020.18891        -5.92849         6.09738
     2020.19164       -24.68110         6.21372
     2020.19438        -2.77871         6.10923
     2020.19712        -7.61732         6.12216
     2020.19986        -3.06593         6.08876
     2020.20260       -10.11854         6.17602
     2020.20533        -5.02215         6.09091
     2020.20807        -7.46176         6.22019
     2020.21081       -12.41037         6.24173
     2020.21355        -7.86299         6.73405
     2020.21629        -4.18760         6.41086
     2020.21902        -5.23621         6.27082
     2020.22179        -8.94484         6.19326
     2020.22450        -5.41243         6.19541
     2020.22724        -9.58504         6.12216
     2020.22997        -4.85065         6.10707
     2020.23271        -3.17726         6.09307
     2020.23545        -1.07487         6.07260
     2020.23819        -3.85448         6.04998
     2020.24093       -22.84309         6.05536
     2020.24366       -15.66070         6.26543
     2020.24640        -2.31331         6.17494
     2020.24914       -13.36192         6.19002
     2020.25188        -4.63153         6.12970
     2020.25462        -4.21614         6.06183
     2020.25735        -7.04376         6.21049
     2020.26009         9.65563         6.13831
     2020.26283        -7.12898         6.20834
     2020.26557        -2.91959         6.10923
     2020.26830        -7.69920         6.02843
     2020.27104        -8.26881         6.08768
     2020.27378        -3.75242         6.12754
     2020.27652        -7.35503         6.13616
     2020.27929        -4.10567         6.29236
     2020.28199       -10.17425         6.20834
     2020.28473       -11.05486         6.19218
     2020.28747       -10.86647         6.27190
     2020.29021       -10.46208         6.02305
     2020.29295        -5.38069         6.09953
     2020.29568        -5.67330         6.11785
     2020.29842        -6.43992         6.11569
     2020.30116        -1.47753         6.09846
     2020.30390        -2.50614         6.13293
     2020.30663        -3.59475         6.16309
     2020.30937       -10.96936         6.24820
     2020.31211       -11.41597         6.27082
     2020.31485        -7.07758         6.17925
     2020.31759       -23.94619         6.01120
     2020.32032       -10.49480         6.29883
     2020.32306       -10.04641         6.10815
     2020.32580        -7.62602         6.10492
     2020.32854        -4.12063         5.97565
     2020.33128        -5.19624         6.01443
     2020.33401        -9.49185         6.00796
     2020.33675        -5.86746         6.07368
     2020.33949        -9.15207         6.06937
     2020.34223        -9.02969         6.24604
     2020.34496        -7.56130         5.99504
     2020.34770       -10.39391         6.00581
     2020.35044       -14.44852         6.25035
     2020.35318       -14.24213         6.09307
     2020.35592       -11.69674         6.16525
     2020.35865        -3.07035         5.99180
     2020.36139        -4.51996         6.08876
     2020.36413       -10.85357         6.13401
     2020.36687         3.19282         6.16848
     2020.36961        -4.44279         6.14693
     2020.37234        -5.73140         6.11461
     2020.37508        -6.17201         6.02305
     2020.37782        -8.79462         6.11569
     2020.38056        -4.64623         6.05644
     2020.38329        -0.18084         6.09522
     2020.38603        -8.96246         6.16848
     2020.38877        -3.71007         6.13939
     2020.39151        -6.88268         6.08122
     2020.39425       -12.61329         5.98750
     2020.39698        -5.34690         6.14047
     2020.39972        -4.62851         6.13508
     2020.40246        -2.85012         6.17386
     2020.40520        -9.62573         6.27944
     2020.40794        -7.12334         6.12539
     2020.41067        -4.04095         6.03059
     2020.41341        -6.92456         6.15663
     2020.41615        -7.67617         6.15986
     2020.41889        -5.98478         6.05321
     2020.42162        -2.95539         6.35269
     2020.42436        -0.78800         6.28806
     2020.42710        -0.59561         6.26436
     2020.42984       -10.34823         6.21911
     2020.43258        -7.45584         6.31930
     2020.43531        -4.84445         6.23850
     2020.43805        -9.47306         6.07476
     2020.44079        -3.77767         6.18679
     2020.44353        -5.27228         6.26866
     2020.44626        -8.59789         6.12323
     2020.44900         1.43050         6.18464
     2020.45174         2.72089         5.97780
     2020.45448        -4.56872         6.00796
     2020.45722        -2.80833         6.04782
     2020.45995        -7.69894         6.15878
     2020.46269       -12.36255         6.04351
     2020.46543        -3.98116         6.00581
     2020.46817        -1.19677         6.05429
     2020.47091        -2.89438         6.22342
     2020.47364        -3.80100         6.11677
     2020.47638         7.63839         6.11461
     2020.47912       -10.07822         6.38393
     2020.48186        -3.59883         6.01227
     2020.48459        -3.34544         6.23850
     2020.48733        -3.44505         6.33869
     2020.49007        -3.09766         6.67480
     2020.49281        -3.30827         6.26651
     2020.49555        -3.54788         6.33869
     2020.49828        -5.96349         6.11354
     2020.50102        -2.85010         6.11461
     2020.50376       -10.07971         6.13077
     2020.50650       -13.78832         6.24389
     2020.50924       -10.08493         6.03059
     2020.51197        -5.13154         5.98642
     2020.51471        -1.08415         6.22450
     2020.51745        -2.25577         6.04782
     2020.52019        -4.90638         6.21588
     2020.52292        -3.05599         6.24066
     2020.52566        -3.39260         6.23635
     2020.52840         5.25179         6.36885
     2020.53114        -0.90982         6.32791
     2020.53388        -3.74543         6.16525
     2020.53661        -7.74804         6.16848
     2020.53935        -4.32765         6.22988
     2020.54209         6.33374         6.28051
     2020.54483       -10.40487         6.33976
     2020.54757        -6.51848         6.12862
     2020.55030        -2.98909         6.29452
     2020.55304       -10.55970         6.36023
     2020.55578         3.69769         6.31499
     2020.55852        -1.87792         6.15771
     2020.56125        11.06046         6.26436
     2020.56399        -1.12615         6.13185
     2020.56673        -5.30676         6.18571
     2020.56947        -2.21337         6.20403
     2020.57221         5.78302         6.47766
     2020.57494         5.92141         6.30960
     2020.57768        -3.69820         6.13939
     2020.58042       -10.11581         6.31930
     2020.58316        -8.34942         6.39686
     2020.58590        -2.97103         6.27836
     2020.58863        -0.08864         6.26436
     2020.59137        -1.34325         6.18679
     2020.59411         4.52114         6.21265
     2020.59685         6.11553         6.51752
     2020.59958        -5.86708         6.46042
     2020.60232         5.75230         6.18464
     2020.60506         4.10969         6.24712
     2020.60780         4.55108         6.34515
     2020.61054         1.71347         6.14047
     2020.61327         7.93386         6.24820
     2020.61601         6.49325         6.19541
     2020.61875        -0.17336         6.11031
     2020.62149        -5.03397         6.37639
     2020.62423        -7.60158         6.20080
     2020.62696        -4.09119         6.41086
     2020.62970         0.49220         6.50459
     2020.63244         1.71059         6.44318
     2020.63518        10.71198         6.30206
     2020.63791        -2.92763         6.35592
     2020.64065        -1.55424         6.36777
     2020.64339        -3.68285         6.13831
     2020.64613         3.71153         6.17710
     2020.64887        -0.20308         6.25789
     2020.65160        -0.68469         6.28913
     2020.65434         1.57270         6.19326
     2020.65708         0.17009         6.23742
     2020.65982         9.13648         6.36777
     2020.66256        18.10087         6.28267
     2020.66529         6.69326         6.24927
     2020.66803         7.76865         6.17925
     2020.67077        12.13304         6.53367
     2020.67351         0.46843         6.28051
     2020.67624         1.37882         6.22557
     2020.67898        -1.44879         6.39471
     2020.68172        -3.21640         6.25681
     2020.68446       -10.73801         6.49382
     2020.68720         0.48638         6.24820
     2020.68993         1.50576         6.27190
     2020.69267        -0.91085         6.24712
     2020.69541         4.01354         6.53152
     2020.69815         3.19193         6.24820
     2020.70089         3.51732         6.24496
     2020.70362        -0.43229         6.38393
     2020.70636         0.74210         6.73620
     2020.70910        -5.17351         6.60477
     2020.71184         0.83688         6.29667
     2020.71457         2.30827         6.23096
     2020.71731         3.15166         6.45934
     2020.72008         0.49102         6.55091
     2020.72279         3.55544         6.25574
     2020.72553         3.11083         6.40763
     2020.72826         1.77722         6.34515
     2020.73100        -3.92639         6.30960
     2020.73374        -4.57301         6.39255
     2020.73648         2.92738         6.41841
     2020.73921        -0.69223         6.23850
     2020.74195         5.59916         6.20403
     2020.74469        -2.80845         6.27728
     2020.74743        -0.48406         6.26543
     2020.75017        -6.18067         6.29021
     2020.75290        -7.47528         6.17279
     2020.75564        -1.36789         6.07045
     2020.75838         3.62650         6.24066
     2020.76112        11.05489         6.08768
     2020.76386         9.82528         6.17710
     2020.76659         0.00767         6.10276
     2020.76933        11.45106         6.27513
     2020.77207         5.04345         6.37316
     2020.77481         7.75084         6.06183
     2020.77754        24.51922         6.22557
     2020.78028         8.62161         6.28806
     2020.78302         2.90800         6.10923
     2020.78576         7.49939         6.10061
     2020.78850         5.01578         6.06075
     2020.79123         4.34117         6.20187
     2020.79397        18.16356         6.15986
     2020.79671         1.36095         6.12646
     2020.79945         4.97634         6.10276
     2020.80219         8.23773         6.25358
     2020.80492         8.11012         6.07045
     2020.80766         7.79951         6.09846
     2020.81040        26.64190         6.12539
     2020.81314        28.28529         6.25897
     2020.81587         2.71568         6.17494
     2020.81861         8.15407         6.09738
     2020.82135         7.27045         6.13077
     2020.82409         7.46484         6.10600
     2020.82683        14.42823         6.23096
     2020.82956         8.42162         6.22450
     2020.83230        14.86801         6.31068
     2020.83504         4.46940         6.24712
     2020.83778        12.44279         6.02197
     2020.84052         7.08018         6.01550
     2020.84325         3.34857         6.33115
     2020.84599        -6.82404         6.31822
     2020.84873         9.09335         6.11785
     2020.85147         9.17074         6.08553
     2020.85420        13.47513         5.98534
     2020.85694        16.33252         6.05213
     2020.85968         7.40691         6.11677
     2020.86242         8.20629         6.10061
     2020.86516        15.07368         6.22019
     2020.87337        13.74085         6.04136
     2020.87611         5.17624         6.23850
     2020.87885         4.19463         6.43995
     2020.88158        10.96202         6.34192
     2020.88432        14.64041         6.13616
     2020.88706        10.15680         6.40440
     2020.88980         2.35119         6.14693
     2020.89253         7.29458         6.23527
     2020.89527         8.55497         6.33115
     2020.89801        18.66336         6.31714
     2020.90075        11.34675         6.21588
     2020.90349        17.80514         6.04782
     2020.90622        14.58552         6.09415
     2020.90896         6.26691         6.19756
     2020.91170         8.12630         6.51752
     2020.91444        10.71269         6.27513
     2020.91718        -6.70692         6.17710
     2020.91991        -1.42453         6.16094
     2020.92265         5.59186         6.09630
     2020.92539         2.24325         6.12646
     2020.92813         4.13464         6.14262
     2020.93086         8.65203         6.13724
     2020.93360         3.83242         6.13508
     2020.93634         0.97881         6.13831
     2020.93908         2.99920         6.15340
     2020.94182         4.11259         6.07045
     2020.94455         0.94398         6.07691
     2020.94729        -2.40863         6.14262
     2020.95003         1.43275         6.13939
     2020.95277        -9.24686         6.01874
     2020.95551        -2.43247         6.10169
     2020.95819         8.00098         6.43241
     2020.96092         1.46837         7.09924
     2020.96372         7.47670         6.14909
     2020.96646        12.08009         6.12862
     2020.96919        -1.61452         6.19972
     2020.97193         5.13687         6.10384
     2020.97467        -0.52074         6.21265
     2020.97741        -1.10335         6.27190
     2020.98015         8.36504         6.44103
     2020.98288         6.55143         6.25681
     2020.98562         8.04782         6.05644
     2020.99110         6.01160         6.11031
     2020.99384         9.56298         6.11031
     2020.99657        10.49337         6.07045
     2020.99931        14.01076         5.97672
     2021.00752         6.52293         6.19649
     2021.01026         7.54232         6.08230
     2021.01300         6.43271         6.32791
     2021.01574        -5.99190         6.35808
     2021.01848         1.31249         5.97457
     2021.02121         4.49688         5.94764
     2021.02395         4.94227         6.07476
     2021.02669         0.61866         6.11569
     2021.02943         0.04705         6.03490
     2021.03216        31.97744         7.52908
     2021.03490        -0.59017         6.31391
     2021.03764         4.32321         6.09307
     2021.04038         2.00160         6.08230
     2021.04312         7.27399         5.96918
     2021.04585         1.89938         6.12216
     2021.04859         7.44577         6.06829
     2021.05133        -5.69984         6.05321
     2021.05407         4.14555         6.33546
     2021.05681         5.09294         6.12970
     2021.05954        -0.45567         5.91101
     2021.06228         2.21972         5.99396
     2021.06502        -0.00489         6.13831
     2021.06776         6.41750         6.03490
     2021.07049         1.51889         6.02843
     2021.07323        -5.92472         5.95302
     2021.07597       -13.70633         6.07476
     2021.07871         3.23906         6.08768
     2021.08145        -2.45556         6.08445
     2021.08418       -15.80317         6.08122
     2021.08692        -9.39478         6.02197
     2021.08966        -8.91239         6.13401
     2021.09240        -1.32200         6.06721
     2021.09514         3.70639         6.24389
     2021.09787         1.46878         6.32468
     2021.10061         6.71817         5.99719
     2021.10335        12.70056         6.05536
     2021.10609         4.94495         6.01658
     2021.10882         1.66334         6.10600
     2021.11156        -1.64327         6.07476
     2021.11430        -5.24888         6.08768
     2021.11704        -2.81849         5.98642
     2021.11978         2.20290         6.09522
     2021.12251        -0.97071         6.07799
     2021.12525        -1.55633         6.00904
     2021.12799         2.10406         6.09307
     2021.13073         5.61345         5.97780
     2021.13347         3.69084         6.08876
     2021.13620         2.80623         6.28159
     2021.13894         1.49362         6.19972
     2021.14168         7.13201         6.05644
     2021.14442        -1.90860         6.04459
     2021.14715         3.54579         6.09738
     2021.14989        -2.80482         6.04459
     2021.15263        -9.76043         6.22988
     2021.15537        -3.01204         6.28159
     2021.15811        -2.55365         6.31176
     2021.16084         8.20474         6.14586
     2021.16358         4.25213         6.14693
     2021.16632         4.90251         6.28806
     2021.16906         1.69590         6.03597
     2021.17180        -1.96571         6.07152
     2021.17453       -11.11232         6.26005
     2021.17727         4.26807         6.18248
     2021.18001        -4.54554         6.17063
     2021.18275        -6.68915         6.45827
     2021.18548        -4.98576         6.00581
     2021.18822        -6.51037         5.94979
     2021.19096         3.12802         6.03166
     2021.19370        -2.95059         6.12862
     2021.19644        -6.98520         6.04351
     2021.19917        -6.86081         6.05105
     2021.20191        -0.67242         5.99180
     2021.20465        -4.88403         6.00473
     2021.20739        -0.20764         6.10061
     2021.21013        -3.62826         6.23742
     2021.21286       -11.74387         6.28375
     2021.21560        -1.58148         6.01227
     2021.21834         2.09091         6.10492
     2021.22108         1.48030         6.11785
     2021.22381        -6.45631         6.09307
     2021.22655        -1.44092         6.18464
     2021.22929         0.36947         5.97134
     2021.23203         0.43986         6.04028
     2021.23477        -9.42075         6.06506
     2021.23750        -3.65836         6.03705
     2021.24024         1.98003         6.14155
     2021.24298        -0.87758         6.00258
     2021.24572        -8.70519         5.96056
     2021.24846        -2.79280         6.10707
     2021.25119         1.71059         6.14478
     2021.25393        -2.76603         6.11569
     2021.25667        -9.66364         6.09091
     2021.25941        -8.17925         6.02197
     2021.26214        -2.67686         6.17279
     2021.26488         2.21753         6.07799
     2021.26762         8.20292         6.21588
     2021.27036         2.45231         6.50136
     2021.27310        -0.21330         6.09953
     2021.27583        -0.07191         5.98642
     2021.27857        -3.98252         6.16848
     2021.28131        -6.82313         6.21480
     2021.28405        -9.34474         6.10061
     2021.28679        -2.27335         6.18033
     2021.28952        -9.25896         6.26759
     2021.29226        -5.72557         6.10600
     2021.29500        -1.81018         6.17494
     2021.29774        -1.99480         6.39363
     2021.30047        -2.72741         6.27405
     2021.30321         3.78498         6.08876
     2021.30595         2.70937         6.31822
     2021.30869        13.66476         6.36993
     2021.31143        -4.59985         6.09846
     2021.31416        -3.48746         6.10169
     2021.31690        -0.70507         6.01766
     2021.32021         2.93878         8.51155
     2021.32295        -6.95283         8.17544
     2021.32569       -12.00945         8.15282
     2021.32842         6.28994         8.12912
     2021.33116         4.46133         8.33919
     2021.33390         2.01472         7.97184
     2021.33664        -5.88289         7.95783
     2021.33937       -10.39950         7.93198
     2021.34211        -9.34611         8.11942
     2021.34485         2.80428         8.27347
     2021.34759        -6.22033         8.11942
     2021.35033        -0.55094         8.42214
     2021.35306       -12.21855         7.91043
     2021.35580        -7.89716         8.13020
     2021.35854        -0.34077         8.23577
     2021.36133        -4.07444         8.47169
     2021.36402        -9.75499         7.88673
     2021.36653       -14.75239         7.11217
     2021.36892        -7.89867         6.14262
     2021.37166        -4.63528         6.09953
     2021.37440        -6.84789         6.10492
     2021.37770        -9.91405         8.24977
     2021.38044         1.48734         8.41029
     2021.38318        -4.04827         8.66345
     2021.38592        -2.57688         8.46846
     2021.38866        -0.65249         8.42429
     2021.39214       -60.66181       146.04082
     2021.39413         4.79129         8.22607
     2021.39687        -2.29432         8.14851
     2021.39938        -1.69272         7.29100
     2021.40177         3.89800         6.24604
     2021.40451         9.70239         6.30852
     2021.40782        -5.79476         8.16575
     2021.41056        -3.20438         8.06125
     2021.41330         0.25401         8.30902
     2021.41603        -1.78560         8.31010
     2021.41877         9.58679         8.30256
     2021.42151        -4.17282         8.62359
     2021.42425         7.80057         8.78410
     2021.42699         5.16896         8.34996
     2021.42972         3.00835         8.30795
     2021.43246         6.49774         8.16575
     2021.43520         7.62413         8.22715
     2021.43794         5.18052         8.70438
     2021.44068        -2.63209         8.53094
     2021.44341        -4.33470         8.24008
     2021.44615        -0.22931         8.33488
     2021.44889        -0.32392         8.35535
     2021.45163        -2.54853         8.88106
     2021.45436       -15.74515         8.72162
     2021.45710        -5.06776         8.64190
     2021.45984         7.07263         8.22069
     2021.46258         6.40402         8.36289
     2021.46527         6.20145         8.77117
     2021.46805         6.83480         8.07633
     2021.47079        -1.01981         8.28317
     2021.47353         1.31158         8.85951
     2021.47627        -5.94403         8.60420
     2021.47901         5.78236         8.59450
     2021.48174         3.52275         8.53525
     2021.48448       -14.17486         8.42537
     2021.48722        -7.52147         8.19699
     2021.48996        -3.46508         8.17544
     2021.49269        -3.23269         8.50832
     2021.49520         0.46991         7.73484
     2021.49817        -5.66692         8.58804
     2021.50091       -12.36053         8.51155
     2021.50365        -4.62814         8.37797
     2021.50638        -6.97875         9.01895
     2021.50912         4.13464         8.62251
     2021.51186         0.72703         9.06850
     2021.51458         6.82743         8.49970
     2021.51733        -1.50419         8.41998
     2021.52007        -2.93680         8.88860
     2021.52281        -2.86241         8.52232
     2021.52555         1.22598         8.36935
     2021.52829        -4.18663         8.35750
     2021.53102        -8.57924         8.76471
     2021.53376        -2.85485         8.45984
     2021.53650        -0.57446         8.60635
     2021.53924        13.11993         8.73886
     2021.54198        19.71031         8.34673
     2021.54471        -1.32830         8.45338
     2021.54745        -1.62891         8.50186
     2021.55019        -2.65452         8.50832
     2021.55293         7.25987         8.52017
     2021.55566         9.50226         8.44153
     2021.55840         1.64665         8.48031
     2021.56114        11.92204         8.19376
     2021.56388        11.64643         8.40921
     2021.56605         2.06936         6.24496
     2021.56878        -4.25925         6.26220
     2021.57152        -0.37186         6.40009
     2021.57426        -5.71547         6.47335
     2021.57700         4.46892         6.73082
     2021.57974        -0.02369         6.24604
     2021.58247        -5.84730         6.34946
     2021.58521        -1.34991         6.27297
     2021.58795        -1.27652         6.58107
     2021.59069         2.39387         6.45719
     2021.59342        -0.25074         6.31606
     2021.59616         4.97565         6.44857
     2021.59890         8.28504         6.30529
     2021.60164         6.04342         6.85578
     2021.60438         4.73881         6.40009
     2021.60711         9.99220         6.32145
     2021.60985         6.58459         6.33115
     2021.61259         6.54598         6.43456
     2021.61533        -1.34963         6.26220
     2021.61807         2.89176         6.31176
     2021.62080         0.79215         6.38824
     2021.62354         4.33154         6.42379
     2021.62628         4.25893         6.43241
     2021.62902        -2.41068         6.44318
     2021.63175         1.67171         6.37316
     2021.63449         2.88910         6.51752
     2021.63723        -1.57151         6.79761
     2021.63997         7.96588         6.45827
     2021.64271         8.34027         6.42056
     2021.64544        -2.28335         6.32899
     2021.64818         2.39804         6.22557
     2021.65092        -0.95857         6.20187
     2021.65366         3.06282         6.42271
     2021.65639         0.88321         6.29452
     2021.65913         1.08060         6.26651
     2021.66187         3.01199         6.31606
     2021.66461         2.44938         6.22019
     2021.66735         4.19777         6.12431
     2021.67008         4.94616         6.36993
     2021.67282         7.85355         6.56815
     2021.67556         5.06994         6.70927
     2021.67830         4.53033         6.40009
     2021.68104         2.45972         6.47119
     2021.68377         7.27511         6.22557
     2021.68651        10.00050         6.22450
     2021.68925        10.00388         6.33546
     2021.69199         8.08427         6.27297
     2021.69472        -6.45234         6.36346
     2021.69746        -1.37295         6.36239
     2021.70020        -3.86056         6.37208
     2021.70294         4.34483         6.45934
     2021.70568         3.51422         6.78252
     2021.70841         1.29161         6.34407
     2021.71115         5.39300         6.46796
     2021.71389         8.50339         6.42056
     2021.71663         5.93678         6.42918
     2021.71937         7.01517         6.57461
     2021.72210        -1.56644         6.36131
     2021.72484        -0.84105         6.29452
     2021.72758         6.19534         6.27513
     2021.73032        -2.44228         6.74159
     2021.73305         5.14311         6.40656
     2021.73579        13.52050         6.43887
     2021.73855         6.16287         6.52937
     2021.74127         9.81928         6.35808
     2021.74401         8.02667         6.50997
     2021.74674        13.50906         6.44211
     2021.74948         6.02245         6.51428
     2021.75222         5.81084         6.27621
     2021.75496         5.01423         6.33115
     2021.75706        12.03423         8.45122
     2021.76043         9.57201         6.52182
     2021.76317         4.53740         6.62955
     2021.76591         6.36779         6.38393
     2021.76865         5.27818         6.31283
     2021.77138         6.23057         6.28913
     2021.77412         9.57995         6.43780
     2021.77686        13.84434         6.38070
     2021.77960        10.52173         6.47227
     2021.78234        12.37212         6.36346
     2021.78507        11.80151         6.28806
     2021.78781        13.86390         6.25789
     2021.79055         7.88429         6.31499
     2021.79329         6.36968         6.29129
     2021.79603         7.82707         6.42056
     2021.79876         6.05146         6.28590
     2021.80150         8.67385         6.42702
     2021.80424         7.98824         6.44534
     2021.80698         5.28963         6.53798
     2021.80971         9.64302         6.42164
     2021.81245        19.37141         6.37424
     2021.81519         5.23780         6.21696
     2021.81793        14.79818         6.20403
     2021.82067         5.23957         6.40548
     2021.82340        17.22996         6.57246
     2021.82614         6.00235         6.54768
     2021.82888        11.01274         6.46257
     2021.83162         9.43713         6.31391
     2021.83436        14.99752         6.33546
     2021.83709         9.37391         6.39686
     2021.83983         0.40230         6.46042
     2021.84257         0.02369         6.57461
     2021.84531        -3.53092         6.49705
     2021.84804         7.40247         6.29991
     2021.85078         7.09786         6.29775
     2021.85352         4.24825         6.35485
     2021.85626         3.54864         6.46796
     2021.85900         3.82003         6.27836
     2021.86447        -4.76720         6.56061
     2021.86721         2.98019         6.65433
     2021.86995        -1.26242         6.68557
     2021.87269         0.24697         6.39686
     2021.87542        -1.76364         6.54983
     2021.87816         9.85975         6.33653
     2021.88090         5.29714         6.31930
     2021.88364        25.18153         6.30314
     2021.88637        -2.90908         6.36023
     2021.88911        -3.62269         6.27405
     2021.89185        -1.97430         6.35808
     2021.89459         2.12409         6.30852
     2021.89733         2.93048         6.24820
     2021.90006       -14.01313         6.56599
     2021.90280        -4.86774         6.33438
     2021.90554         4.41364         6.28159
     2021.90828         0.53303         6.27190
     2021.91102         4.41142         6.38070
     2021.91375         0.61781         6.37424
     2021.91650        -8.98581         6.52182
     2021.91923         1.24659         6.36885
     2021.92197        -2.70702         6.68665
     2021.92470        -3.86563         6.58646
     2021.92744        12.40976         6.64571
     2021.93018         6.29115         6.32145
     2021.93292        18.66154         6.48735
     2021.93566        23.64393         6.76421
     2021.94113        22.45871         6.83208
     2021.94387        23.88310         6.50890
     2021.94661        -4.63151         6.62632
     2021.94935        11.14187         6.38393
     2021.95208         7.78326         6.53583
     2021.95482        11.84565         6.49920
     2021.95756        19.54404         6.49920
     2021.96030         1.53543         6.39471
     2021.96303         6.25582         6.36346
     2021.96577        20.04821         6.37316
     2021.96851        21.45760         6.29560
     2021.97125        27.93299         6.31176
     2021.97399        23.14338         6.27082
     2021.98220        17.23555         6.48627
     2021.98494         4.88094         6.31606
     2021.98767        11.61633         6.25143
     2021.99041        10.68171         6.30637
     2021.99315         2.83310         6.32791
     2021.99589         8.06249         6.35054
     2021.99863         2.77888         6.25681
     2022.00136         1.22527         6.33761
     2022.00410        -4.75634         6.35485
     2022.03696        -2.07867         6.44641
     2022.03969        -4.74828         6.70927
     2022.04243         7.72311         6.39471
     2022.04517         0.81750         6.44641
     2022.04791         6.08289         6.29344
     2022.05065         4.03428         6.36777
     2022.05338        25.81667         6.49597
     2022.05612         4.46806         6.50136
     2022.05886        -5.10655         6.32899
     2022.06160        -2.93016         6.35485
     2022.06433         1.98423         6.40009
     2022.06707        -8.28138         6.33007
     2022.06981         2.93001         6.44749
     2022.07255       -11.98960         6.26866
     2022.07529        -1.78221         6.20941
     2022.07802        -1.25283         6.32037
     2022.08076         1.10956         6.25789
     2022.08350         8.36095         6.22234
     2022.08624         0.68634         6.25143
     2022.08898         0.37073         6.30098
     2022.09171        -3.15788         6.28590
     2022.09445        -3.08349         6.15555
     2022.09719       -10.56010         6.20618
     2022.09993        -2.50571         6.44103
     2022.10266        -5.61132         6.42810
     2022.10540         0.45207         6.21911
     2022.10814         2.23346         6.24173
     2022.11088        -1.85315         6.37316
     2022.11362         1.12824         6.22988
     2022.11635         3.32563         6.25358
     2022.11909         0.90502         6.24604
     2022.12183        -1.90760         6.22342
     2022.12457        -6.08621         6.45827
     2022.12731         2.76518         6.26220
     2022.13004        -1.52643         6.20618
     2022.13278         0.78696         6.15663
     2022.13552         7.19735         6.20187
     2022.13826         1.73074         6.27836
     2022.14099         2.98813         6.23742
     2022.14373       -10.36848         6.25035
     2022.14647         3.68891         6.21911
     2022.14921        -1.62370         6.40009
     2022.15195        -2.67731         6.53152
     2022.15468         1.19508         6.19326
     2022.15742       -15.72053         6.40979
     2022.16290        16.21925         6.41410
     2022.16564        -3.22337         6.14047
     2022.16837        -4.03098         6.18356
     2022.17111        -0.22359         6.23742
     2022.17385        -0.90320         6.23204
     2022.17659         0.66119         6.24173
     2022.17932         2.41258         6.21372
     2022.18206        -3.66703         6.29021
     2022.18480        -9.41464         6.20618
     2022.18754        -3.84925         6.27190
     2022.19028        -2.56286         6.32361
     2022.19301        -2.01547         6.20511
     2022.19575         8.80792         6.18356
     2022.19849         4.68531         6.19218
     2022.20123       -11.73430         6.25358
     2022.20397         3.37809         6.25574
     2022.20670        -3.90652         6.34192
     2022.20944        -0.13814         6.32791
     2022.21218         2.26925         6.20511
     2022.21492        -7.78936         6.21696
     2022.21765        -2.94897         6.22450
     2022.22039        -5.46158         6.14909
     2022.22313        -6.03219         6.19972
     2022.22587        -7.17580         6.38501
     2022.22861        -3.02941         6.28159
     2022.23134         1.43398         6.17063
     2022.23408        -6.21363         6.19756
     2022.23682        -0.32824         6.40332
     2022.23956        -5.13885         6.29775
     2022.24450         6.07644         8.76148
     2022.24777        -0.73968         6.53260
     2022.25050        -5.71429         6.77175
     2022.25325        -1.47691         6.49705
     2022.25598        -6.66952         6.26974
     2022.25872         7.79287         6.25466
     2022.26146        -9.00074         6.10169
     2022.26420        -7.52835         6.18679
     2022.26694       -15.60796         6.38501
     2022.26967        -0.46457         6.21911
     2022.27241         5.54782         6.30314
     2022.27515         5.20221         6.34084
     2022.27789        -0.47440         6.16740
     2022.28062        -5.10601         6.20511
     2022.28336        -0.53862         6.12970
     2022.28610         2.46177         6.41410
     2022.28884        -2.62684         6.40440
     2022.29158       -12.30645         6.28051
     2022.29431        -9.26007         6.21372
     2022.29705        -7.22568         6.29236
     2022.29979        -0.60529         6.21265
     2022.30253        -4.39590         6.31499
     2022.30527       -10.94651         6.38178
     2022.30800        -8.66612         6.19218
     2022.31074        -7.05373         6.13616
     2022.31348        -8.94434         6.22881
     2022.31622       -11.00095         6.31176
     2022.31895       -23.00256         6.43133
     2022.32169        -9.43517         6.56061
     2022.32443        -5.51678         6.12216
     2022.32717       -14.01439         6.21372
     2022.32870        -3.55885        20.58458
     2022.33354       -11.46147        12.24000
     2022.33538        -9.95822         6.48304
     2022.33812         1.93316         6.54337
     2022.34086       -14.09445         6.22450
     2022.34360       -10.45306         6.25789
     2022.34633        -3.58367         6.39901
     2022.34907        -2.79328         6.27836
     2022.35181        -4.22789         6.20834
     2022.35455       -10.85650         6.22557
     2022.35728        -6.76311         6.31714
     2022.36002        -4.88272         6.22988
     2022.36276        -9.01233         6.29021
     2022.36550        -6.65294         6.26866
     2022.36824       -11.29755         6.25358
     2022.37097       -11.43216         6.22665
     2022.37371       -12.57077         6.20941
     2022.37645       -11.51838         6.42056
     2022.37919        -5.39399         6.45611
     2022.38193       -13.35261         6.55199
     2022.38466       -10.88422         6.34946
     2022.38740       -23.15483         6.22557
     2022.39014        -6.83644         6.24281
     2022.39288        -8.93405         6.24173
     2022.39561       -11.17266         6.29236
     2022.39835       -15.07527         6.44965
     2022.40109       -22.37188         6.50782
     2022.40383       -11.06049         6.21480
     2022.40657         3.63790         6.26005
     2022.40930       -10.17871         6.34300
     2022.41204        -7.28332         6.41410
     2022.41478       -12.29393         6.19326
     2022.41752       -10.14954         6.37962
     2022.42026       -11.25215         6.42164
     2022.42299       -13.78976         6.24820
     2022.42573       -10.81838         6.19756
     2022.42847       -20.99099         6.47227
     2022.43121       -22.33060         6.42271
     2022.43394         1.95779         6.33869
     2022.43668       -14.18582         6.34838
     2022.43942        -1.84343         6.38824
     2022.44216       -12.16304         6.47550
     2022.44490        -2.83165         6.51752
     2022.44763        -6.56426         6.19433
     2022.45037       -14.01087         6.22988
     2022.45311       -11.39848         6.11569
     2022.45585        -5.30509         6.19110
     2022.45859       -16.82970         6.24712
     2022.46132        -8.56031         6.24066
     2022.46406       -13.76892         6.20726
     2022.46680       -20.71553         6.25574
     2022.46954       -11.64315         6.18033
     2022.47227        -9.62676         6.24712
     2022.47501        11.81363         6.29021
     2022.47775        -6.15398         6.43456
     2022.48049       -11.99459         6.22126
     2022.48323        -0.45420         6.16525
     2022.48596         2.27719         6.20834
     2022.48870       -18.79242         6.44103
     2022.49144        -7.12803         6.30421
     2022.49418       -10.22864         6.43349
     2022.49692       -13.47225         6.19110
     2022.49965        -3.85086         6.25897
     2022.50239       -14.24947         6.32361
     2022.50513       -10.67908         6.67049
     2022.50787        -1.95469         6.92688
     2022.51060       -19.86630         6.51536
     2022.51334       -12.90092         6.32145
     2022.51608       -14.46453         6.39363
     2022.51882       -23.06214         6.28267
     2022.52156        -9.26075         6.25143
     2022.52429        -7.82236         6.34192
     2022.52703        -3.84397         6.26436
     2022.52977        -1.24258         6.43672
     2022.53251        -9.08319         6.26759
     2022.53525       -11.62080         6.41086
     2022.53798       -10.68941         6.56061
     2022.54072        -5.49502         6.36346
     2022.54347         1.14436         6.31930
     2022.54620        -5.66324         6.34838
     2022.54893        -7.47385         6.30960
     2022.55167       -10.46446         6.31606
     2022.55441        -1.84608         6.26328
     2022.55715         3.42831         6.19756
     2022.55989       -13.74430         6.30529
     2022.56262        -8.31291         6.41302
     2022.56536       -11.82152         6.42810
     2022.56810        -6.85113         6.28375
     2022.57084       -16.24374         6.41302
     2022.57357         0.77465         6.64032
     2022.57631       -26.68596         6.59400
     2022.57905       -10.82757         6.31499
     2022.58179        -7.53018         6.34300
     2022.58453        -5.81579         6.55414
     2022.58726         0.08460         6.24173
     2022.59000         4.91099         6.56815
     2022.59274       -11.13862         6.16201
     2022.59548        -3.83223         6.18679
     2022.59822       -10.47785         6.38609
     2022.60095       -12.54946         6.28375
     2022.60369         2.68693         6.18248
     2022.60643         8.71432         6.28806
     2022.60917         1.46771         6.82454
     2022.61190        -2.14190         6.67372
     2022.61464        -4.85851         6.57677
     2022.61738         9.35788         6.10384
     2022.62012        -1.66073         6.12000
     2022.62286         4.26766         6.28267
     2022.62559        -4.68395         6.34838
     2022.62833        -8.10556         6.27728
     2022.63107         0.34883         6.27082
     2022.63381         9.51122         6.31930
     2022.63655         0.09361         6.44103
     2022.63928        -7.84400         6.36993
     2022.64202        -8.89962         6.81161
     2022.64476        -1.13023         6.70065
     2022.64750         7.59016         6.53475
     2022.65023         3.14355         6.52290
     2022.65297         9.53594         6.69527
     2022.65571         7.56833         6.50459
     2022.65845         5.48472         6.38178
     2022.66119         5.05211         6.21265
     2022.66392         4.91850         6.28806
     2022.66666         6.34089         6.41410
     2022.66940         5.71228         6.22773
     2022.67214         0.39767         6.22988
     2022.67488         7.31006         6.26759
     2022.67761         2.32645         6.53044
     2022.68035         6.56884         6.23850
     2022.68309         9.56523         6.21911
     2022.68583         7.63161         6.51321
     2022.68856         6.04200         6.82238
     2022.69130         1.96239         6.23204
     2022.69404         9.01078         6.42702
     2022.69678        15.11117         6.27405
     2022.69952         3.15756         6.30745
     2022.70225        -4.20505         6.56922
     2022.70499        11.02434         6.48412
     2022.70773         6.19173         6.36993
     2022.71047         1.31412         6.30852
     2022.71321        15.60851         6.20511
     2022.71868         4.55029         6.21480
     2022.72142         5.40568         6.22773
     2022.72416         8.13007         6.26220
     2022.72689        14.26146         6.29236
     2022.72963         2.23884         6.36885
     2022.73238        -1.26878         6.21157
     2022.73511        -3.53838         6.35377
     2022.73785         1.11501         6.14155
     2022.74058        11.16140         6.36777
     2022.74332        11.27779         6.43780
     2022.74606         6.96218         6.24927
     2022.74880        -5.10443         6.25358
