# ================= DQRFIT RESULTS ================
# INPUT FILE: series/TRI1.rad
# OUTPUT: LDETRENDED
# FILTER FUNCTION: f(t)
# f(t)=+line(t)+annual(t)
# line(t)=+P 1+P 2*t
# annual(t)=+P 3*sin(2*pi*t+P 4)
# heav(t)=(t<0?0:1)
# TOTAL OBSERVATIONS MTOT= 1439
# INITIAL TIME INTERVAL= 2011.2140 - 2006.6010 =  4.6130
# TOTAL OBSERVATIONS AFTER PREFILTER M= 1426
# TIME-SPAN= 2011.2140 - 2006.6010 =  4.6130
# OBSERVATIONS: USED M=  1426 REJECTED MTOT-M=    13 %USED=   99.0966
# N=  4 PARAMETERS
# MAXSIG= 175.00000
# MAXRES=  27.61442
# SCALE FACTOR FOR LENGTHS: SCL=  10.00000
# SCALE FACTOR FOR SIGMAS: SCLSIG=   1.00000
# CHI^2=   1106.444 DOF=  1422 CHI^2/DOF=   0.77809
# RMS=      6.958 SDEV=      6.949 MEAN=   -0.41107
#  P #       PARAMETER +-    SIGMA %error PARAMETER NAME
# P 1 =      4762.86059 +-  226.671   4.76 YZERO                              
# P 2 =        -2.36454 +-    0.113   4.77 SLOPE                              
# P 3 =         5.90033 +-    0.189   3.21 ANNUAL AMPLITUDE                   
# P 4 =        -2.87270 +-    0.044   1.52 ANNUAL PHASE                       
#       T            LDETRENDED       SIG_OBS
     2006.60095         1.69641         5.05528
     2006.60369         6.18488         5.11791
     2006.60643         6.10336         5.02882
     2006.60917         6.56183         4.97501
     2006.61190         4.59131         4.98736
     2006.61464         6.02778         5.05263
     2006.61738        13.60825         4.99706
     2006.62012         8.97873         5.07116
     2006.62286         7.99120         5.01118
     2006.62559         6.87167         4.96707
     2006.75975        13.23289         5.09586
     2006.76249        12.65236         5.14349
     2006.76522         7.30584         5.21141
     2006.76796         5.78231         5.20171
     2006.77070         5.44978         5.02617
     2006.77344         2.57126         5.17701
     2006.77618         9.52573         5.13379
     2006.77891        14.39021         5.09145
     2006.78165         9.89168         4.99883
     2006.78439        11.24515         4.93796
     2006.78713        14.11363         5.26081
     2006.78987        21.88710         4.97325
     2006.79260        10.38357         4.99794
     2006.79534         1.66805         5.08704
     2006.79808        13.64452         5.09145
     2006.80082         9.66200         5.11791
     2006.80355         5.89947         4.96178
     2006.80629         8.49294         4.92826
     2006.80903         7.53642         5.03499
     2006.81177         4.07989         5.07204
     2006.81451        11.54436         5.07733
     2006.81724         5.82384         5.09850
     2006.81998         1.92031         4.93796
     2006.82272         1.72379         4.93884
     2006.82546        18.83426         5.06587
     2006.82820         4.46273         4.90797
     2006.83093         7.30421         4.91238
     2006.83367        11.69868         4.91503
     2006.83641         7.47915         5.04381
     2006.83915        17.09263         5.12938
     2006.84188         2.15910         5.15760
     2006.84462         9.54858         5.20876
     2006.84736        10.94505         5.06851
     2006.85010        13.58352         5.17966
     2006.85284        11.27900         5.28021
     2006.85557        11.63647         5.19289
     2006.85831         8.77394         5.09233
     2006.86105        16.39042         5.19994
     2006.86379         1.57989         5.20612
     2006.86653         4.94337         5.34549
     2006.86926         3.77584         5.03058
     2006.87200         1.63631         5.02794
     2006.87474         5.49779         5.03587
     2006.87748         7.19026         4.95208
     2006.88021         3.89973         5.01206
     2006.88295         5.06821         5.17260
     2006.88569         2.62268         5.06057
     2006.88843         6.79916         5.10732
     2006.89117         6.86563         5.04911
     2006.89390        -1.31590         5.15760
     2006.89664        -3.62942         5.14790
     2006.89938         1.14005         4.98648
     2006.90212         1.74352         5.05440
     2006.90485         2.21900         5.29256
     2006.90759         4.38847         4.94414
     2006.91033        -2.39205         4.98912
     2006.91295         1.70515         5.30668
     2006.91581        -3.01011         4.98824
     2006.91854        -6.82763         4.97060
     2006.92128        -2.47116         4.93267
     2006.92402        -3.70869         5.14084
     2006.92676        -2.94021         4.98118
     2006.92950         0.30826         5.07998
     2006.93223        -2.83626         5.02264
     2006.93497         2.97621         5.21494
     2006.93771         2.65368         5.06939
     2006.94045         4.99316         5.00588
     2006.94318         4.71663         5.10556
     2006.94592         1.74710         5.25640
     2006.94866         2.81258         5.13467
     2006.95140         8.24205         5.01823
     2006.95329        17.61553         8.75831
     2006.96078       -14.50777        12.94561
     2006.96235        -2.50305         5.01647
     2006.96509        -1.63158         5.07998
     2006.96783         3.83689         5.22641
     2006.97056         3.11737         5.10468
     2006.97330        -1.82916         5.01823
     2006.97604         1.09132         5.06057
     2006.97878        -2.37721         5.05528
     2006.98151        -3.50174         5.06675
     2006.98425        -0.81526         5.03323
     2006.98699         0.71721         5.20347
     2006.98973        -7.87032         5.16290
     2006.99794        -8.40289         5.16995
     2007.00342         2.34705         5.26081
     2007.00616        -3.85147         5.11879
     2007.00889         0.61400         5.10821
     2007.01163        -0.09553         5.06675
     2007.01437        -1.91805         5.08704
     2007.01711        -6.62658         5.08704
     2007.01984        -6.89910         5.03235
     2007.02258        -7.44963         5.00412
     2007.02504         0.64317         5.85446
     2007.05544       -10.42194         4.84005
     2007.05817       -13.56847         4.89827
     2007.06091        -6.90900         4.85416
     2007.06365       -10.15152         4.81447
     2007.06639       -14.59405         4.95296
     2007.06913       -13.28658         4.80477
     2007.07186        -7.83210         4.78889
     2007.07460        -8.23363         4.81623
     2007.07734       -10.55915         4.81270
     2007.08008       -14.82368         4.82594
     2007.08282        -9.59221         4.78712
     2007.08555        -8.11173         4.86916
     2007.08829        -8.89426         4.87357
     2007.09103        -6.28779         4.93002
     2007.09377        -3.55231         4.88592
     2007.09650       -10.69084         4.92473
     2007.09924       -12.05836         4.81623
     2007.10198        -5.98489         4.79065
     2007.10472        -5.51742         4.94678
     2007.10746        -5.36594         5.01382
     2007.11019        -8.69447         4.83917
     2007.11293        -0.42100         4.86210
     2007.11567        -7.83552         4.78183
     2007.11841        -9.46405         4.83387
     2007.12115        -9.71757         4.84711
     2007.12388        -4.23710         4.92120
     2007.12662        -6.94163         4.83123
     2007.12936        -6.34615         4.98559
     2007.13210        -4.79768         4.90180
     2007.13466        -1.54461         5.22464
     2007.13757         3.33327         4.93620
     2007.14031        -2.70826         4.84975
     2007.14305        -4.16178         4.81888
     2007.14579        -5.99931         4.80829
     2007.14852        -6.25484         4.85857
     2007.15126         3.26564         4.89474
     2007.15400         0.56311         4.86563
     2007.15674         2.74958         4.82329
     2007.15948         1.30606         5.09233
     2007.16221        -5.11847         5.16466
     2007.16495        -2.54199         5.04381
     2007.16769        -5.95552         5.01382
     2007.17043        -4.30705         4.93620
     2007.17316        -3.25357         4.98824
     2007.17590        -7.09810         4.98559
     2007.17864        -2.06363         5.06057
     2007.18138        -0.10115         4.99265
     2007.18412        -6.19668         4.94766
     2007.18685        -0.86920         5.06057
     2007.18959        -3.84073         4.98383
     2007.19233        -4.19026         5.12761
     2007.19507        -9.30778         4.84270
     2007.19780       -10.22831         4.86475
     2007.20054       -13.76284         4.92208
     2007.20328       -12.49136         4.94325
     2007.20602        -6.09389         4.96795
     2007.20876        -5.57541         4.93443
     2007.21149       -12.20494         4.90797
     2007.21423        -0.94047         4.92826
     2007.21697        -4.16799         4.89209
     2007.21971        -2.20852         4.85593
     2007.22245        -6.29905         4.87004
     2007.22518         2.10343         4.99530
     2007.22792         1.10290         4.96531
     2007.23066        -7.91562         4.86828
     2007.23340        -9.65015         4.97677
     2007.23613       -11.60068         4.91767
     2007.23887       -10.38620         4.85416
     2007.24161       -15.11473         4.88945
     2007.24435        -2.39226         4.84622
     2007.24709        -7.61078         4.83564
     2007.24982        -6.23331         4.85416
     2007.25256        -9.12083         4.83211
     2007.25530       -11.18736         4.85240
     2007.25804        -6.73389         4.91415
     2007.26078        -6.92941         4.87798
     2007.26351        -2.94294         4.83476
     2007.26625         1.68053         4.97236
     2007.26899         5.36301         4.88856
     2007.27173        -4.38652         4.91326
     2007.27446         2.58096         4.75360
     2007.27720         2.76243         4.80918
     2007.27994        -0.62810         4.84005
     2007.28268        -1.45962         5.03058
     2007.28542        -5.62215         4.83123
     2007.31576        -5.20440         5.37724
     2007.31827        -2.36046         4.89739
     2007.32101        -1.98399         4.90268
     2007.32375        -2.15052         4.90532
     2007.32648        -3.45204         4.88151
     2007.32922        -2.49457         4.87092
     2007.33196        -1.44810         5.05263
     2007.33470        -4.28162         5.00500
     2007.33744        -3.55715         4.86828
     2007.34017       -10.41867         4.87974
     2007.34303        -6.48793         5.24140
     2007.34571       -10.00459         4.99971
     2007.34936        -2.59896         9.35020
     2007.35130        -7.62737         5.22376
     2007.35386        -4.71830         5.17789
     2007.35671        -9.91356         5.35607
     2007.35951        -6.35895         5.29786
     2007.36213        -5.30175         5.03323
     2007.36481        -6.89241         5.01206
     2007.36755        -5.54994         4.93267
     2007.37029        -6.00746         4.94061
     2007.37303        -3.38899         5.04822
     2007.37577        -8.72151         5.02882
     2007.37850        -9.47804         5.06234
     2007.38124        -4.60857         4.94325
     2007.38398        -0.06709         4.91150
     2007.38672        -9.92562         4.93091
     2007.38945       -14.92515         4.89209
     2007.39219        -4.63467         5.05969
     2007.39493        -5.24120         4.89209
     2007.39767        -6.56872         4.91679
     2007.40041        -0.50825         4.86210
     2007.40314        -5.01578         4.85328
     2007.40588        -8.16730         4.86651
     2007.40856        -8.43996         5.07380
     2007.41136        -9.09836         4.82329
     2007.41410        -1.45688         4.86034
     2007.41683        -2.64241         4.89915
     2007.41957        -2.24593         4.91856
     2007.42231         0.58654         4.99177
     2007.42505         1.86301         4.99883
     2007.42778        -0.46451         4.82682
     2007.43052        -1.54904         4.83564
     2007.43326        -1.17557         4.87269
     2007.43600        -5.36209         4.92297
     2007.43874        -1.28462         4.86828
     2007.44147        -0.86014         4.96884
     2007.44421        -1.06067         5.11438
     2007.44695        -9.14720         4.98824
     2007.44969        -7.55272         4.84534
     2007.45243        -5.09125         4.88504
     2007.45516        -4.61378         4.83829
     2007.45790        -0.51030         4.84534
     2007.46064        -6.21983         4.87004
     2007.46338        -1.82435         4.84005
     2007.46611        -1.94988         4.87269
     2007.46885         2.38959         4.91503
     2007.47159        -1.93193         4.84534
     2007.47433        -5.06546         4.88945
     2007.47707       -10.84699         5.02617
     2007.47980        -8.10251         4.85240
     2007.48254        -8.53504         4.87533
     2007.48528        -7.62556         4.90356
     2007.48802       -12.42509         4.95208
     2007.49076         0.45938         5.02970
     2007.49349        -6.43814         4.86122
     2007.49623        -4.53367         4.88592
     2007.49897        -3.06120         4.90444
     2007.50171        -5.38072         4.84975
     2007.50444        -7.00425         4.83829
     2007.50718        -4.09977         4.83123
     2007.50992         1.08670         4.95560
     2007.51266        -6.75283         4.86739
     2007.51540         2.49965         4.91767
     2007.51813        -3.55088         4.89033
     2007.52087        -1.16241         4.88945
     2007.52350        -5.38120         5.09409
     2007.52635         0.59454         4.94943
     2007.52908         0.79802         4.99971
     2007.53182         2.94149         4.98559
     2007.53456        -4.26604         5.00588
     2007.53730         3.32644         4.93443
     2007.54004         0.63391         4.93443
     2007.54277        -2.09962         4.96001
     2007.54551         2.44986         4.91591
     2007.54825         0.26033         4.92914
     2007.55099         3.38381         4.97589
     2007.55373         5.97328         4.91503
     2007.55646        -2.29425         4.97060
     2007.55920         4.67023         4.88415
     2007.56194         4.03870         4.85593
     2007.56468         4.42417         4.82241
     2007.56741        -4.54735         4.90532
     2007.57015         0.54712         4.92120
     2007.57289         1.66160         4.88592
     2007.57563         3.96907         4.89915
     2007.57837         1.00054         4.90356
     2007.58110         5.71702         4.85681
     2007.58384         9.36249         4.88239
     2007.58658         0.52796         4.90709
     2007.58932         2.25444         4.87092
     2007.59206         1.47991         4.89915
     2007.59479        12.29739         5.30668
     2007.59753         8.26086         5.47075
     2007.60027         4.61733         4.96090
     2007.60301         7.10481         4.80565
     2007.60574         7.55728         4.87886
     2007.60848         3.43375         4.83211
     2007.61122         9.64423         4.98207
     2007.61396         3.00670         4.86651
     2007.61670         1.62418         5.26610
     2007.61943         6.67265         5.23082
     2007.62217         9.16412         5.10115
     2007.62491         5.72660         5.06057
     2007.62765         7.63607         5.20259
     2007.63039        12.51054         5.28374
     2007.63312         7.78502         5.00412
     2007.63586         6.32049         5.01294
     2007.63860         2.68197         5.00059
     2007.64134        11.35744         4.88239
     2007.64407        11.37991         5.18142
     2007.64681         3.91339         5.10291
     2007.64955        18.30286         5.37283
     2007.65229         5.86334         5.12056
     2007.65503         8.30181         5.06234
     2007.65776         5.39928         5.08880
     2007.66050         7.51276         5.07557
     2007.66324         7.76923         5.06587
     2007.66598         4.74770         5.07116
     2007.66872         2.99818         5.12320
     2007.67145        10.53865         5.28904
     2007.67419        10.97513         5.36578
     2007.67693         7.39060         5.11085
     2007.67967        12.85107         5.09850
     2007.68240        13.22155         5.04822
     2007.68514         8.27202         5.16907
     2007.68788         8.92649         5.19465
     2007.69062        10.27397         5.03323
     2007.69336        10.06744         5.06234
     2007.69609         8.30292         5.17348
     2007.69883         4.14539         5.06145
     2007.70157         7.86886         5.09321
     2007.70431         4.40934         5.28021
     2007.70705         5.71081         5.20876
     2007.70978         9.01328         5.15760
     2007.71252         8.65076         5.08351
     2007.71526        11.06923         4.94061
     2007.71800         7.82871         4.95472
     2007.72073         8.10318         5.02000
     2007.72347        15.16565         5.05263
     2007.72621         6.85513         4.88415
     2007.72895         6.97160         4.92385
     2007.73169         5.88407         5.01118
     2007.73442         1.70055         4.99442
     2007.73716         6.85402         5.09321
     2007.73990        11.48750         5.03852
     2007.74264        14.15797         4.89209
     2007.74538        16.51844         4.96707
     2007.74811        11.62092         5.10556
     2007.75079        11.68826         5.27228
     2007.75359        10.44086         5.09056
     2007.75633        12.50234         4.94414
     2007.75906         7.94481         4.93267
     2007.76180         5.03329         4.95031
     2007.76454         2.93376         4.92914
     2007.76728        13.70923         5.39665
     2007.77002         5.09071         5.35343
     2007.77275         6.63518         5.17789
     2007.77549         9.73865         4.92914
     2007.77823         6.32613         4.94855
     2007.78097         7.52560         4.88327
     2007.78371         8.49408         4.93884
     2007.78644        16.65955         4.89827
     2007.78918         9.35102         5.07116
     2007.79192         7.25050         5.06675
     2007.79466         7.88097         5.09409
     2007.79739         9.30944         5.15584
     2007.80013        19.32192         5.05969
     2007.80287         5.66539         4.93796
     2007.80561         3.49287         5.01029
     2007.80835         5.51934         5.04205
     2007.81108         7.72681         5.14790
     2007.81382         4.51829         5.03323
     2007.81656         4.49376         5.13732
     2007.81930         4.97523         4.98824
     2007.82203        -6.06529         5.05175
     2007.82477        -2.51182         5.20788
     2007.82751        -1.21534         5.00941
     2007.83025         4.18213         5.00588
     2007.83299         6.19360         4.91767
     2007.83572         0.39608         4.89121
     2007.83846        -2.50045         4.94061
     2007.84120         3.76802         4.97942
     2007.84394        -0.41350         4.94678
     2007.84668        -1.06103         5.00588
     2007.84941         1.92945         5.00500
     2007.85215         3.35192         5.06851
     2007.85489         5.83039         5.33931
     2007.85763        -0.32513         5.16907
     2007.86036        10.36634         5.00765
     2007.86310         9.69081         5.09233
     2007.86584         5.49729         4.99883
     2007.86858         3.00876         4.86916
     2007.87132         7.88524         5.05969
     2007.87405        11.11071         5.13467
     2007.87679         7.24818         4.99706
     2007.87953         4.21166         4.98648
     2007.88227         1.17613         4.89562
     2007.88501         3.01460         4.90709
     2007.88774        -2.72492         4.92914
     2007.89048        -3.41545         4.94502
     2007.89322        -0.85897         5.09939
     2007.89596         3.26650         5.01118
     2007.89869        -1.45603         4.92032
     2007.90132        -1.49782         5.20612
     2007.90948         4.63146         5.33579
     2007.91238         2.32734         4.90709
     2007.91512         5.40882         4.93443
     2007.91786         4.36129         5.00765
     2007.92060         3.05676         5.17525
     2007.92334        -1.30076         5.17260
     2007.92607        -2.47629         4.99001
     2007.92881         2.53918         4.93091
     2007.93155         2.04166         4.92473
     2007.93429        -6.06987         4.97413
     2007.93702        -4.92739         5.08263
     2007.93976        -9.90192         6.27345
     2007.95448         1.54188        10.95296
     2007.95619         2.49292         5.09497
     2007.95893        10.27140         5.43370
     2007.96167        17.71487         6.53014
     2007.96440         1.40734         5.18230
     2007.96714        14.29082         6.09880
     2007.96988        -7.41571         5.04293
     2007.97262        -8.76823         5.25993
     2007.97535        -0.45876         5.08174
     2007.97809        -1.25329         5.04558
     2007.98083        -3.03881         5.07028
     2007.98357         4.79066         4.98559
     2007.98631        -1.80187         5.13643
     2007.98904         3.74561         5.18407
     2007.99178        -2.99292         5.14084
     2007.99452        -2.13444         5.09233
     2007.99726        -4.62297         4.91679
     2008.00000       -12.85350         5.03676
     2008.00273        -8.91302         5.25904
     2008.00553         2.46459         5.05969
     2008.00821         7.01592         4.95031
     2008.01095        10.99840         4.88856
     2008.01368         5.07387         4.87798
     2008.01642         4.09135         4.87004
     2008.01916        -0.42218         5.12232
     2008.02190         0.38529         5.12232
     2008.02464         1.09277         5.19200
     2008.02737        -1.21976         4.87269
     2008.03011        -2.76529         5.17083
     2008.03285        -9.94081         4.91062
     2008.03559        -7.32934         5.03676
     2008.03833       -17.20686         5.12320
     2008.04106        -9.70439         5.00412
     2008.04380       -12.84392         5.00412
     2008.04654       -10.31944         4.97325
     2008.04928        -7.32597         4.91238
     2008.05201        -8.17150         4.96001
     2008.05475        -7.61402         4.92649
     2008.05749       -11.52855         4.87710
     2008.06023        -5.87607         4.92473
     2008.06297        -2.02260         4.87798
     2008.06570        -3.05313         4.86916
     2008.06844        -0.79765         4.96795
     2008.07118         5.26482         4.89121
     2008.07392         2.04429         4.99089
     2008.07666         2.98777         5.17436
     2008.07939         4.66624         5.10556
     2008.08213         1.55972         4.94678
     2008.08487        -1.57481         4.91415
     2008.08761        -2.51434         4.87798
     2008.09034         0.04314         4.88680
     2008.09308        -3.23039         4.88063
     2008.09582         5.91908         5.17613
     2008.09856         0.51956         5.08263
     2008.10130         2.45703         5.05528
     2008.10403        -0.63849         4.86034
     2008.10677        -0.89502         4.89915
     2008.10951        -6.86155         4.90797
     2008.11225        -4.63907         5.07292
     2008.11498        -2.10360         5.08174
     2008.11772        -2.43613         4.87357
     2008.12046        -6.95265         4.84446
     2008.12320        -5.07018         5.10997
     2008.12594        -5.77270         4.88504
     2008.12867        -4.56623         4.92032
     2008.13141        -3.06776         4.91062
     2008.13415         1.06872         4.87180
     2008.13689        -1.68781         4.90180
     2008.13963        -1.10034         4.89827
     2008.14236         2.61714         4.93267
     2008.14510        -0.60839         5.03676
     2008.14784         2.98909         4.89827
     2008.15058        -3.92844         4.86651
     2008.15331       -11.29197         4.93620
     2008.15605        -5.22549         4.87622
     2008.15873        -6.24215         4.97060
     2008.16350       -11.93988         7.57189
     2008.19533        -2.98961         7.93796
     2008.19712         0.87761         4.87092
     2008.19986         3.11909         4.89033
     2008.20260        -4.00944         4.90356
     2008.20533        -5.01597         4.90268
     2008.20807        -5.22849         5.06410
     2008.21081        -1.92102         4.96795
     2008.21355        -2.51754         4.94237
     2008.21629        -3.41507         4.95913
     2008.21902        -5.99260         4.98471
     2008.22176       -12.83212         4.92738
     2008.22450        -7.45365         5.00500
     2008.22724        -6.31018         4.95560
     2008.22997        -6.65970         5.01382
     2008.23271        -3.95323         5.05881
     2008.23545        -4.52975         5.03499
     2008.23819        -4.31828         5.00941
     2008.24093        -7.23781         5.09233
     2008.24366       -14.49433         5.00853
     2008.24640        -8.02686         4.86916
     2008.24914        -2.28438         4.87092
     2008.25188        -5.16591         4.97766
     2008.25462        -5.09444         4.84005
     2008.25735        -8.90296         5.11262
     2008.26009        -0.10949         4.87886
     2008.26283        -5.11502         4.89474
     2008.26557        -2.43654         4.97148
     2008.26830        -5.22407         4.97060
     2008.27104        -3.56159         4.83123
     2008.27378        -9.28112         4.84181
     2008.27652        -9.98465         4.87710
     2008.27926        -4.17117         4.96354
     2008.28194         0.01717         4.90003
     2008.28473        -4.35423         4.92385
     2008.28747        -0.39475         5.12320
     2008.29021        -3.39428         5.08615
     2008.29295        -2.53580         4.88592
     2008.29568        -1.06933         4.89298
     2008.29842        -5.37986         4.90621
     2008.30116        -0.90838         4.93355
     2008.30390        -7.90191         5.06057
     2008.30663        -0.12144         4.89033
     2008.30937        -0.17596         5.01735
     2008.31211        -6.19049         5.00677
     2008.31485        -4.96401         4.84446
     2008.31759       -11.48354         4.92473
     2008.32032        -9.00407         5.14790
     2008.32306        -6.04159         5.20965
     2008.32580        -2.90112         5.05263
     2008.32854        -5.20365         4.99706
     2008.33128       -11.15317         4.95296
     2008.33401        -5.90370         4.94943
     2008.33675        -8.12222         5.03676
     2008.33949        -3.93275         5.02970
     2008.34223        -1.65528         4.90268
     2008.34496        -3.68880         4.83123
     2008.34770        -2.88133         4.87886
     2008.35044        -4.09686         4.85504
     2008.35318        -5.70538         4.81888
     2008.35592        -4.16891         4.80388
     2008.35865        -0.30643         4.81182
     2008.36139        -1.71796         4.78712
     2008.36413         2.38251         4.81711
     2008.36687        -3.12901         4.83211
     2008.36961       -13.17454         4.77742
     2008.37234       -10.34507         4.80300
     2008.37508        -1.67359         4.81535
     2008.37782         1.40388         4.96178
     2008.38050        -1.53178         4.93355
     2008.38329        -2.14817         4.93884
     2008.38603        -0.97970         4.79242
     2008.38877         1.04178         4.88415
     2008.39151        -3.04075         4.91415
     2008.39425        -5.49028         4.81976
     2008.39698        -0.73080         4.89033
     2008.39989         3.07008         5.25287
     2008.40246        -6.32485         4.78007
     2008.40520        -4.00338         4.77918
     2008.40794        -2.60991         4.79771
     2008.41067        -1.59843         4.79771
     2008.41341        -5.45696         4.86828
     2008.41615         0.11651         4.78624
     2008.41889        -4.46901         4.78448
     2008.42162         1.09746         4.92738
     2008.42436        -0.65806         5.08615
     2008.42710        -5.22959         5.16290
     2008.42984        -1.55912         4.88856
     2008.43258         2.61236         4.94590
     2008.43531        -3.18117         5.20171
     2008.43805        -4.34270         4.91679
     2008.44079        -7.82322         4.92120
     2008.44353       -13.71275         4.92208
     2008.44632        -3.73214         5.46457
     2008.44900        -7.54080         4.81800
     2008.45174        -6.63133         4.95296
     2008.45448        -4.13385         5.08086
     2008.45722        -7.94038         4.93973
     2008.45995        -5.32591         4.77918
     2008.46269        -8.08743         4.78977
     2008.46543        -5.84496         4.98648
     2008.46817        -8.33348         4.82153
     2008.47091        -8.71101         4.99442
     2008.47364        -8.65454         4.93532
     2008.47638        -2.31606         4.80212
     2008.47912        -5.23659         4.80212
     2008.48186        -3.47312         4.82329
     2008.48459        -2.73964         5.00853
     2008.48733        -6.63717         5.01206
     2008.49007        -3.30469         4.91150
     2008.49281        -5.33222         5.00412
     2008.49555         1.53725         5.42223
     2008.49828        -4.21627         4.97325
     2008.50102        -3.29780         5.04470
     2008.50376         3.62867         5.08439
     2008.50650        -8.12785         5.07998
     2008.50924        -2.26938         5.05440
     2008.51197        -1.08190         4.83211
     2008.51471        -1.21143         4.86298
     2008.51745        -1.12096         4.85681
     2008.52013         4.41938         5.00941
     2008.52292        -2.00901         5.04911
     2008.52566         1.02146         5.02000
     2008.52840         0.61194         5.04822
     2008.53108         0.81028         5.03058
     2008.53388         4.31989         5.08174
     2008.53661         0.61436         5.04558
     2008.53935         3.49183         4.89650
     2008.54209        -1.19569         4.80741
     2008.54483         2.45078         4.94237
     2008.54757         0.32226         4.95208
     2008.55036         3.25186         4.89827
     2008.55304        12.27420         4.86563
     2008.55578         3.84968         4.81447
     2008.55852         4.24515         4.81182
     2008.56125        -2.29438         4.84358
     2008.56399         0.04810         4.83564
     2008.56673        -6.10543         4.93091
     2008.56947         0.90805         4.81888
     2008.57221         5.98952         4.93796
     2008.57494         7.21299         5.04381
     2008.57768         4.85747         4.91944
     2008.58042         3.16294         4.84446
     2008.58316        19.45541         4.95825
     2008.58590         6.17389         4.79594
     2008.58863         6.38136         4.90621
     2008.59137         1.96684         4.83917
     2008.59411         4.68131         4.79947
     2008.59685         1.35878         4.89209
     2008.59958         3.22226         5.08174
     2008.60232        11.71473         5.07292
     2008.60506        12.48320         4.96972
     2008.60780         4.76168         4.90444
     2008.61054         3.25815         4.86916
     2008.61327         8.05363         4.88768
     2008.61601        10.64710         4.88856
     2008.61875         3.72557         4.88680
     2008.62149         2.74305         4.89650
     2008.62423         5.89352         4.90356
     2008.62696         1.93999         4.94325
     2008.62970        10.38347         5.07645
     2008.63244         5.62394         4.88504
     2008.63518        11.93242         5.08439
     2008.63791        10.26689         4.96531
     2008.64065        10.36636         4.89209
     2008.64339         9.57884         4.90003
     2008.64613         7.26031         5.24228
     2008.64887        15.57978         5.19730
     2008.65155         7.46612         5.07204
     2008.65434         7.40173         5.01823
     2008.65708        11.56721         5.19994
     2008.65982        17.76768         4.96442
     2008.66256         4.36415         4.99089
     2008.66529         5.68563         4.99442
     2008.66803         1.79810         5.09409
     2008.67077         2.33957         4.93973
     2008.67351         3.24505         4.93796
     2008.67624         8.98852         5.31021
     2008.67898         5.25500         4.99971
     2008.68172         4.18247         4.94414
     2008.68446         4.76294         4.93708
     2008.68720         3.98642         5.07821
     2008.68993         5.03489         4.98559
     2008.69267         5.77736         4.93267
     2008.69541         6.30984         4.96619
     2008.69815         9.73031         5.00500
     2008.70089        10.72079         4.91062
     2008.70362         8.85826         4.88504
     2008.70636         8.93773         4.85769
     2008.70910         8.42621         4.99265
     2008.71184         5.64668         5.11526
     2008.71457         3.23515         5.07116
     2008.71731         2.49663         4.90709
     2008.72005        10.05610         5.00588
     2008.72279        17.39458         5.12585
     2008.72553         2.02405         5.28815
     2008.72826         3.76352         4.88151
     2008.73100         3.06800         5.02794
     2008.73374        16.79347         4.98648
     2008.73648         5.49494         4.81270
     2008.73921         3.83742         4.95913
     2008.74469         5.09237         4.84887
     2008.74743         8.91384         4.86563
     2008.75017         4.61031         4.89121
     2008.75290         9.31079         5.04558
     2008.75564        17.60026         5.21053
     2008.75838        16.42373         5.10997
     2008.76112        12.86821         4.85240
     2008.76386         7.11968         4.87974
     2008.76659         8.38416         5.12849
     2008.76933         4.50263         4.99001
     2008.77207         3.40710         4.79153
     2008.77481        10.04758         5.15055
     2008.77754         3.03805         4.77213
     2008.78028         0.08052         4.81359
     2008.78302         1.63100         5.14173
     2008.78576         4.28647         4.97766
     2008.78850        -0.89905         5.02705
     2008.79123         7.68542         5.09321
     2008.79397         3.10689         4.94855
     2008.79671        -1.95263         5.03587
     2008.79945         0.26284         4.92649
     2008.80207         5.46805         5.29256
     2008.80492        10.84479         4.89562
     2008.80766         1.65926         4.99971
     2008.81040         3.73974         5.20347
     2008.81314         2.57021         4.85769
     2008.81587         5.99468         4.86739
     2008.81861         1.49616         4.87886
     2008.82135         0.83663         4.82594
     2008.82409        -1.71090         4.89827
     2008.82683        -0.81342         5.12761
     2008.82956         2.05305         4.84711
     2008.83230        -2.45847         4.94678
     2008.83504        11.16900         4.89209
     2008.83778         9.77047         5.06057
     2008.84069         3.34535         5.35872
     2008.84331         8.59856         5.05440
     2008.84599         9.15490         4.86122
     2008.84873         1.79337         4.90180
     2008.85147         3.07484         4.99706
     2008.85420         2.68432         5.17613
     2008.85694         3.91179         4.86916
     2008.85979         5.48453         5.17083
     2008.86253         5.17001         5.16642
     2008.86521        10.54835         5.05352
     2008.86801         1.08695         5.20700
     2008.87063        -5.12684         5.04911
     2008.87337        -5.27237         4.90709
     2008.87611         0.58511         4.85416
     2008.87885         1.77258         4.92561
     2008.88158         1.31105         4.96884
     2008.88432        -1.70647         4.93355
     2008.88706        -6.20200         4.99530
     2008.88991        -1.79626         5.25993
     2008.89253         4.25095         4.88680
     2008.89527         0.65242         4.98471
     2008.89801         3.04690         4.95472
     2008.90075         0.46937         4.92826
     2008.90349         2.13184         4.83829
     2008.90622        -5.37268         4.95384
     2008.90896         5.81179         4.87710
     2008.91170        -0.03473         5.00853
     2008.91444         4.49174         4.93443
     2008.91718         3.06421         4.94678
     2008.91991         1.11569         4.94855
     2008.92265        -1.29184         4.92561
     2008.92539         0.61063         5.00059
     2008.92813         2.77611         5.12056
     2008.93086        -2.04742         4.99265
     2008.93360        -1.13494         5.00147
     2008.93634        -4.50247         4.92032
     2008.93908        -2.84900         5.07028
     2008.94182        -4.66652         4.94855
     2008.94455        -9.38305         4.98912
     2008.94729        -1.38058         4.94502
     2008.95003        -2.63910         5.12585
     2008.95277        -1.37163         4.86034
     2008.95551        -3.98115         4.94061
     2008.95824        -5.02968         4.85416
     2008.96098        -1.01321         4.88768
     2008.96372         2.08927         4.88945
     2008.96646        -4.24526         4.95825
     2008.96919       -10.11479         4.88945
     2008.97193         0.37369         4.87622
     2008.97467        -0.60984         4.89386
     2008.97741        -3.33436         4.91679
     2008.98927        -2.73031         8.72303
     2008.99110        -2.60700         4.94061
     2008.99384         1.34648         4.90356
     2008.99657        -6.97405         4.88327
     2008.99931        -3.96557         4.88856
     2009.00479        -1.72463         4.89386
     2009.00752        -2.72715         4.95296
     2009.01026        -5.23368         4.85946
     2009.01300         5.61779         5.30403
     2009.01574        -1.17173         4.92120
     2009.01848         2.75174         4.90180
     2009.02121        -1.51678         5.13202
     2009.02395       -10.33631         5.00677
     2009.02669       -15.20584         6.48427
     2009.02943       -12.17236         4.86298
     2009.03211       -12.01501         5.02441
     2009.03833       -11.48131         6.99412
     2009.04038       -10.55647         4.82770
     2009.04312       -13.87499         4.86916
     2009.04585       -12.76552         4.86122
     2009.04859       -13.78205         5.15672
     2009.05133       -12.29757         4.83211
     2009.05407       -10.79410         4.86034
     2009.05681        -9.53063         4.79242
     2009.05954        -7.21615         4.84534
     2009.06228       -10.47668         4.97148
     2009.06502       -12.30220         4.84622
     2009.06776        -8.32573         4.84534
     2009.07049       -12.66026         5.07557
     2009.07323        -5.26978         4.85240
     2009.07597        -8.65531         5.03235
     2009.07871       -10.95984         4.83829
     2009.08145        -8.43836         4.83829
     2009.08418        -7.67289         4.92473
     2009.08692        -5.68341         4.96001
     2009.08966        -7.12294         5.01647
     2009.09240       -11.48347         5.14261
     2009.09514        -4.31899         4.85240
     2009.09787        -1.14052         5.14084
     2009.10061         0.01695         5.09762
     2009.10335        -9.59157         4.81623
     2009.10609        -2.72310         4.82770
     2009.10882       -11.14462         5.21935
     2009.11156        -9.50715         5.39312
     2009.11430         0.56632         4.99530
     2009.11704        -6.10920         4.91415
     2009.11978        -3.18073         4.81359
     2009.12251        -2.09026         4.84975
     2009.12525        -3.77178         4.81006
     2009.12799         1.27769         4.90709
     2009.13073         0.68717         4.84887
     2009.13347        -6.32036         4.80918
     2009.13620        -8.49989         4.82417
     2009.13894        -9.04541         4.87004
     2009.14168        -6.13494         4.85769
     2009.14442        -4.75846         4.85504
     2009.14715        -5.19899         4.95649
     2009.14989        -2.44252         5.00412
     2009.15263        -6.99504         4.86563
     2009.15537        -5.79757         5.00500
     2009.15811        -6.30510         4.95649
     2009.16084        -5.03562         4.88856
     2009.16358         1.86385         4.94325
     2009.16632        -1.56367         4.93179
     2009.16906        -3.20720         5.04381
     2009.17180        -1.57073         4.87004
     2009.17453        -3.34225         4.87886
     2009.17727        -0.34578         5.00853
     2009.18001        -4.45631         4.83917
     2009.18275        -5.02083         4.86210
     2009.18548        -9.44236         4.85328
     2009.18822        -7.13188         4.86298
     2009.19096       -10.19741         4.81888
     2009.19370        -8.42094         4.82682
     2009.19644        -4.37146         4.81711
     2009.19917         0.96101         5.20435
     2009.20191        -1.87352         5.11262
     2009.20465        -1.00804         5.34196
     2009.20739        -4.28757         5.41429
     2009.21013        -6.39909         4.97766
     2009.21286        -3.28962         5.09674
     2009.21560         2.24685         5.19994
     2009.21834        -7.33767         5.50603
     2009.22096         0.47253         5.21318
     2009.22381        -5.78073         5.18054
     2009.22661        -3.31312         5.22023
     2009.22929        -4.28778         5.12232
     2009.23203        -2.46030         5.30932
     2009.23477        -1.56583         4.86210
     2009.23750        -0.23936         4.94414
     2009.24024        -7.14388         4.90444
     2009.24298        -2.50441         4.87622
     2009.24572         2.60906         4.94061
     2009.24846         2.35054         4.91856
     2009.25119         0.29501         5.09233
     2009.25393        -5.22851         5.04822
     2009.25667        -4.85004         4.85681
     2009.25941        -5.21557         4.89209
     2009.26214        -5.02209         4.89386
     2009.26488        -0.28562         4.89827
     2009.26762        -1.64815         4.90532
     2009.27036        -3.46067         4.94149
     2009.27310        -2.77620         4.88504
     2009.27583        -5.12972         4.97236
     2009.27857        -5.33825         5.03852
     2009.28131        -5.81178         5.03499
     2009.28405        -6.50830         4.94061
     2009.28679        -1.23683         4.96001
     2009.28952        -8.91936         4.97501
     2009.29226        -9.07888         5.07028
     2009.29500       -10.92241         4.97060
     2009.29774        -8.21993         4.92649
     2009.30047        -8.86246         4.93267
     2009.30321        -4.54499         4.95031
     2009.30595        -3.52651         5.04381
     2009.30869        -4.60304         5.01470
     2009.31143        -1.65557         4.88504
     2009.31416        -2.55909         4.86916
     2009.31690        -8.60562         4.90885
     2009.31964        -5.19414         5.02176
     2009.32238        -1.79367         4.94237
     2009.32512        -5.72220         5.02352
     2009.32785        -8.60972         5.06057
     2009.33059        -4.90625         4.90621
     2009.33333        -1.96678         5.24228
     2009.33607        -5.79330         5.04999
     2009.33880         0.13317         4.93179
     2009.34154         0.40465         5.08263
     2009.34434        -4.97775         5.20965
     2009.34702        -4.44041         4.96531
     2009.34976        -0.82993         4.86387
     2009.35249        -8.72146         4.97589
     2009.35523       -10.25499         4.90356
     2009.35797        -6.37151         4.93355
     2009.36071        -4.22704         5.00235
     2009.36344        -2.93356         5.03146
     2009.36618         0.96491         5.02705
     2009.36892        -2.87962         5.01470
     2009.37166        -4.80614         5.02705
     2009.37440        -9.12367         4.89915
     2009.37713        -4.51420         4.89474
     2009.37987        -3.24472         5.18848
     2009.38261        -0.45925         5.00588
     2009.38535        -5.44577         4.91062
     2009.38809        -8.84830         4.87622
     2009.39082        -8.24283         5.00235
     2009.39356        -8.35735         4.83917
     2009.39624        -6.63001         4.98824
     2009.39904         0.88459         5.11085
     2009.40177        -7.90693         4.90091
     2009.40451        -1.45546         5.16731
     2009.40725        -3.05498         4.89386
     2009.40999        -3.07451         4.85857
     2009.41273        -7.02504         4.93267
     2009.41546         1.73744         4.88239
     2009.41820        -4.26509         4.93267
     2009.42094        -8.45362         4.89474
     2009.42368        -6.07414         4.91767
     2009.42642        -5.86167         4.90180
     2009.42915        -0.58519         4.96178
     2009.43189        -2.06972         4.90709
     2009.43463        -0.69825         4.88063
     2009.43737         5.06023         4.86298
     2009.44010        -9.60730         4.89209
     2009.44284         0.26618         4.85593
     2009.44558        -1.07435         4.86739
     2009.44832        -3.17688         4.91326
     2009.45106         0.21160         4.90797
     2009.45379        -2.54193         4.86916
     2009.45653        -2.86146         4.88945
     2009.45927        -5.21798         4.91767
     2009.46201        -1.34851         4.89121
     2009.46475        -1.91103         5.06410
     2009.46748         0.67944         5.00324
     2009.47022        -1.06809         4.87004
     2009.47296        -0.22561         4.92208
     2009.47570         0.73886         4.87622
     2009.47843        -4.35867         4.93620
     2009.48117        -0.79919         4.96795
     2009.48391        -1.22972         4.89650
     2009.48665        -8.31024         4.96442
     2009.48939        -0.46677         5.08174
     2009.49212         1.42870         4.95296
     2009.49486        -4.67482         4.96972
     2009.49760        -0.62535         5.17701
     2009.50034         0.36112         5.04558
     2009.50308         1.14060         4.96178
     2009.50581         2.79707         4.87798
     2009.50855         3.30655         5.04293
     2009.51127        -0.62601         5.08439
     2009.51403         2.42449         4.86298
     2009.51676         2.50997         4.87180
     2009.51950         1.66344         5.11967
     2009.52224        -2.30109         5.10556
     2009.52492        -1.41575         5.00941
     2009.52772        -7.73614         5.22552
     2009.53045         1.31834         4.92032
     2009.53319         0.25081         4.87533
     2009.53593         1.65528         4.84975
     2009.53867         1.60076         4.86828
     2009.54141        -0.15077         4.85063
     2009.54414         1.75170         4.91326
     2009.54688         0.76418         4.90973
     2009.54962         2.85865         4.84799
     2009.55236         2.97413         4.86651
     2009.55509         8.95760         4.86210
     2009.55783         4.48707         4.87622
     2009.56057        -4.67145         5.12232
     2009.56331        14.65602         5.14702
     2009.56605         5.02649         5.14878
     2009.56878         2.25397         4.88592
     2009.57152        10.14144         4.92826
     2009.57426         4.40192         4.99353
     2009.57700         4.93539         5.05175
     2009.57974         4.74386         4.88768
     2009.58247         5.35834         4.95296
     2009.58521         5.70781         4.97236
     2009.58795         0.24928         4.94943
     2009.59069         5.34776         5.01911
     2009.59342        -0.58477         5.02882
     2009.59616         3.98771         4.88945
     2009.59890         9.51618         4.91503
     2009.60164         4.91165         4.94590
     2009.60438         2.34113         4.89915
     2009.60711         3.53560         4.91944
     2009.60985         6.06807         5.06675
     2009.61259        -0.35445         4.99353
     2009.61533        -2.92398         4.93443
     2009.61807         6.83950         4.96090
     2009.62080         4.65997         4.92826
     2009.62354        -0.03856         5.04558
     2009.62628         4.92892         5.12232
     2009.62902         9.95939         5.15496
     2009.63175         5.54886         4.93443
     2009.63449         1.55734         5.54308
     2009.63723         2.40181         5.12938
     2009.63997         1.97629         4.99530
     2009.64271         2.92376         4.99971
     2009.64544         8.78023         4.92473
     2009.64818        10.76571         5.14084
     2009.65092         5.71618         5.03676
     2009.65366        -1.80635         5.25728
     2009.65639        -2.08087         4.86122
     2009.65913         3.11460         4.89033
     2009.66187         8.36308         4.87622
     2009.66461         8.58455         4.98118
     2009.66740        13.12916         5.41870
     2009.67008         2.47450         4.90268
     2009.67282         6.67197         5.19818
     2009.67556         4.10244         5.37283
     2009.67835        10.86905         5.46634
     2009.68104         7.19239         5.15055
     2009.68372        -7.17927         5.01294
     2009.68640        11.96307         5.49368
     2009.68925         5.27181         5.00500
     2009.69199         2.77629         5.16995
     2009.69472        -0.17224         4.95737
     2009.69746         4.78423         4.86298
     2009.70020        11.07071         4.97236
     2009.70294         9.73718         4.95031
     2009.70568         7.30466         4.95384
     2009.70841         3.21213         4.93884
     2009.71115         5.18560         4.96266
     2009.71389         5.07708         5.15760
     2009.71663         6.89455         5.20612
     2009.71937         9.19802         4.96442
     2009.72210        -0.23750         4.94237
     2009.72484         6.54997         4.93884
     2009.72758         2.82645         4.92561
     2009.73032         0.55292         4.98295
     2009.77686         5.21297         4.97766
     2009.77960        11.00045         5.10468
     2009.78234        14.96992         4.97589
     2009.78507         8.81040         5.35078
     2009.78781        11.38287         5.18318
     2009.79055        -3.50266         5.40371
     2009.79329         6.02882         5.31638
     2009.79603         7.06229         5.09939
     2009.79876         5.58076         5.24493
     2009.80139         7.50097         5.22905
     2009.80430         4.07185         5.17877
     2009.80686         0.89192         6.69156
     2009.81880        20.75314        10.07528
     2009.82502        15.42184        10.71744
     2009.82888         4.99098         6.32902
     2009.83097        18.94591         9.31315
     2009.83353         1.53897         8.61277
     2009.83629         5.48951         8.60747
     2009.83930         3.10661         8.06498
     2009.84257         3.39734         5.82006
     2009.84531         4.33782         5.83064
     2009.84804        16.27429         5.60394
     2009.85010        13.67015         7.22082
     2009.93678       -10.06690        12.08910
     2009.93839        -2.77107         5.03587
     2009.94113        -0.72960         4.89915
     2009.94387        -2.30813         4.97942
     2009.94661         2.89035         4.99706
     2009.94935        -1.04918         4.89474
     2009.95208        -7.34171         4.89121
     2009.95482        -7.27223         5.00677
     2009.95756        -4.09076         4.93179
     2009.96030        -7.75628         4.93443
     2009.96303        -5.69281         4.90091
     2009.96577        -7.47434         4.99883
     2009.96851        -5.34586         5.13996
     2009.97125        -0.84739         5.03146
     2009.97399        -4.36392         4.94766
     2009.97672        -6.88344         4.85946
     2009.97946        -9.74197         4.86122
     2009.98220       -10.27249         4.89650
     2009.98494        -3.27002         4.83829
     2009.98767        -4.85055         4.84005
     2009.99041        -4.27807         4.84887
     2009.99315        -4.80160         4.85681
     2009.99589        -2.10313         4.89739
     2009.99863        -2.84765         4.87974
     2010.00410        -4.96970         4.90532
     2010.00684       -10.47123         4.87798
     2010.00958       -12.95576         5.06763
     2010.01232       -12.41128         4.94414
     2010.01505       -12.71981         4.90180
     2010.01779        -8.15634         4.90268
     2010.02053        -4.53586         4.95737
     2010.02287        -4.86833         6.30785
     2010.10266         2.36735         4.86651
     2010.10540        -2.26317         4.94943
     2010.10814        -4.09970         4.97854
     2010.11088        -2.31723         5.02441
     2010.11362         5.97025         4.89209
     2010.11635         0.95372         5.05793
     2010.11909        -1.21981         4.91767
     2010.12183        -8.28733         5.00147
     2010.12457        -2.52086         4.95119
     2010.12731        -1.45138         5.07998
     2010.13004        -4.00191         4.96531
     2010.13278        -6.90644         4.89121
     2010.13552        -5.05096         4.94502
     2010.13826        -1.76849         4.89562
     2010.14099        -1.40402         4.86475
     2010.14373        -2.66854         5.05440
     2010.14647        -0.06907         5.02264
     2010.14921         4.40241         4.90532
     2010.15195        -6.58412         4.88768
     2010.15468        -1.52965         4.85946
     2010.15742         4.09783         4.92297
     2010.16016         1.41130         4.88504
     2010.16290         1.55377         4.86034
     2010.16558        -6.82889         4.99177
     2010.16837        -2.64228         4.88768
     2010.17111         0.95620         4.89298
     2010.17385        -3.41933         4.87269
     2010.17659         0.60714         4.85504
     2010.17932         3.04262         4.82417
     2010.18206         2.37309         4.84446
     2010.18480        -0.46044         4.87710
     2010.18754         4.13004         4.83652
     2010.19028         4.77151         4.91503
     2010.19301         2.74599         4.90268
     2010.19575         0.91846         4.85152
     2010.19820        -6.87274         5.46810
     2010.20123        -4.92359         4.88327
     2010.20397        -3.29712         5.03058
     2010.20670        -2.84165         4.99089
     2010.20944        -4.71217         4.86563
     2010.21218        -4.33970         4.86387
     2010.21492        -4.55922         4.86563
     2010.21765         5.56625         4.98559
     2010.22039        -1.16128         4.90091
     2010.22313        -5.57580         4.86828
     2010.22587        -5.47233         4.93179
     2010.22861         7.90614         5.01382
     2010.23134        -0.11538         4.97942
     2010.23956         6.57104         5.03852
     2010.24230         4.29051         5.19906
     2010.24503        -2.44401         5.13114
     2010.24777         1.51146         4.98824
     2010.25051         7.09393         5.21935
     2010.25325         5.12641         4.99353
     2010.25598         4.85688         4.96354
     2010.25872         9.32636         5.04470
     2010.26146         6.72783         5.08792
     2010.26420        -0.36170         5.19112
     2010.26694         5.60478         5.20700
     2010.26967         2.91325         5.01823
     2010.27241         2.09472         5.00588
     2010.27515         0.33520         4.97148
     2010.27789         0.33867         4.96619
     2010.28062         0.73815         4.89386
     2010.28336        -2.66638         4.97942
     2010.28610        -6.10991         5.01294
     2010.28884        -1.23443         4.92208
     2010.29158        -1.07596         5.02176
     2010.29431         0.29051         5.01470
     2010.29705         3.93999         4.90444
     2010.29979         4.34746         5.00677
     2010.30253         7.08794         5.15231
     2010.30527         5.51441         5.10732
     2010.30800         4.20188         4.94237
     2010.31074         3.63936         5.03499
     2010.31348         4.23383         4.86210
     2010.31622         7.48730         4.86475
     2010.31895         6.75578         5.10291
     2010.32169        11.06125         4.97413
     2010.32443         5.97273         5.12761
     2010.32717         1.83220         4.89386
     2010.32991         1.41967         4.88327
     2010.33264         4.85615         4.85946
     2010.33538         2.36362         5.04822
     2010.33812         2.39210         5.01294
     2010.34086        -0.80543         4.93267
     2010.34360        -1.86996         4.81182
     2010.34633        -5.46348         4.96795
     2010.34907        -1.72401         4.88856
     2010.35181        -0.34154         4.91591
     2010.35455         3.06894         4.89386
     2010.35728        -3.53659         4.87533
     2010.36002        -1.67111         4.88680
     2010.36276        -0.57464         4.82241
     2010.36550        -0.95517         5.08174
     2010.36824        -1.20669         5.13996
     2010.37097         0.67378         4.95560
     2010.37371         3.63825         4.89386
     2010.37645         2.88473         4.86828
     2010.37919         2.21420         5.19553
     2010.38193        -5.97632         5.18054
     2010.38466         5.64715         5.03323
     2010.38740         6.67262         4.93355
     2010.39014         1.41610         4.90797
     2010.39288        -1.02843         4.92120
     2010.39561        -5.93596         4.96442
     2010.39835         2.44652         4.93355
     2010.40109         2.64999         4.84181
     2010.40383         3.51647         4.84975
     2010.40657         1.23894         4.81800
     2010.40930        -1.89459         4.93620
     2010.41204         4.11189         5.01647
     2010.41478         3.05536         4.84887
     2010.41752        13.16083         4.85769
     2010.42026         3.84931         4.89298
     2010.42299         7.54778         4.88768
     2010.42573        -0.20274         4.86828
     2010.42847        -1.26427         4.90885
     2010.43121        -4.80280         4.89209
     2010.43394         1.54268         4.87798
     2010.43668        -4.18585         5.00588
     2010.43942         7.31962         4.91503
     2010.44216        -1.99990         4.80918
     2010.44490        -4.25343         4.81447
     2010.44763        -1.94895         4.84975
     2010.45037         2.43852         4.88768
     2010.45311        -2.76901         4.88327
     2010.45585         1.85047         4.94855
     2010.45859        -1.67306         4.86828
     2010.46132         2.09341         4.89827
     2010.46406         0.16989         4.86563
     2010.46680        -5.87464         4.86210
     2010.46954        -0.57116         4.85328
     2010.47227        -3.12369         4.78536
     2010.47501        -2.14622         4.89209
     2010.47775         3.93926         4.95119
     2010.48049         1.59273         4.98824
     2010.48323         1.51220         4.87357
     2010.48596         3.15268         4.87092
     2010.48870        -1.09485         4.80653
     2010.49144         5.37563         4.80565
     2010.49418         6.55410         4.80565
     2010.49692         2.79057         4.83211
     2010.49965         1.92505         4.84270
     2010.50239         5.20852         4.80565
     2010.50513         1.71699         4.79947
     2010.50787         0.18047         4.85152
     2010.51060        -0.77506         4.84446
     2010.51334         4.48142         4.82946
     2010.51608         2.96889         4.85681
     2010.51882         1.06436         4.86651
     2010.52156        14.20184         4.99706
     2010.52429        10.15731         4.88592
     2010.52703         6.19378         4.84534
     2010.52977         3.27326         4.80653
     2010.53251        -1.25427         4.84270
     2010.53525         6.80221         4.83652
     2010.53798         2.63768         4.85240
     2010.54072         1.76315         4.83917
     2010.54346         1.97563         4.82594
     2010.54620         2.76110         4.79771
     2010.54893         0.68957         4.84622
     2010.55167         0.44305         4.82417
     2010.55441         7.26152         4.93532
     2010.55715         4.98700         4.80565
     2010.55989         1.99447         4.90532
     2010.56262         1.68594         4.80918
     2010.56536         2.81642         4.88327
     2010.56810         8.90189         4.94061
     2010.57084         5.32436         4.84799
     2010.57357         6.26284         4.95472
     2010.57631         5.49231         4.98471
     2010.57905         1.15079         4.95560
     2010.58179         2.41526         4.90973
     2010.58453         0.43173         4.86034
     2010.58726         2.70621         4.94590
     2010.59000         0.07468         5.00235
     2010.59274         3.19115         4.93884
     2010.59548         2.47463         4.90973
     2010.59822         9.46010         4.91062
     2010.60095         7.92458         4.82594
     2010.60369         3.65405         4.82064
     2010.60643         5.30452         4.85063
     2010.60917         4.93600         4.93091
     2010.61190         4.99747         4.93973
     2010.61464         3.61294         4.95913
     2010.61738         6.61842         5.03235
     2010.62012         2.82189         5.04381
     2010.62286         5.12437         4.87622
     2010.62559         7.36384         4.93708
     2010.62833         8.41131         4.88415
     2010.63107         8.03079         4.99353
     2010.63381         7.57126         4.81447
     2010.63655        10.15174         4.82241
     2010.63928         5.56421         4.86210
     2010.64202         4.37868         4.93620
     2010.64476        -3.21084         5.01294
     2010.64750         0.79063         4.89739
     2010.65023         7.11210         4.94149
     2010.65297         6.45358         5.09586
     2010.65571         5.61605         4.77830
     2010.65845         7.74353         4.81447
     2010.66119         5.77100         4.92561
     2010.66392        10.15447         4.93091
     2010.66666         8.06695         4.85416
     2010.66940         9.88142         4.94590
     2010.67214         3.73089         5.03146
     2010.67488         6.59837         4.89121
     2010.67761         6.21684         4.81006
     2010.68035         7.55632         4.93796
     2010.68309         9.10479         4.91679
     2010.68583        14.93826         4.96972
     2010.68856         4.44074         4.82770
     2010.69130         2.16921         4.85240
     2010.69404         6.32668         5.00677
     2010.69678        -3.68784         4.91415
     2010.69952        -2.07537         4.88327
     2010.70225         0.27511         4.85857
     2010.70499         5.24958         4.88151
     2010.70773         8.87905         5.02970
     2010.71047        16.45253         5.09233
     2010.71321         6.87300         5.30315
     2010.71594         4.55447         5.30579
     2010.71868        10.94695         5.02617
     2010.72142         9.26242         5.31726
     2010.72416        10.15790         5.16113
     2010.72689         4.56337         5.36754
     2010.72963         1.36284         5.14614
     2010.73237         3.26232         5.61012
     2010.73511         5.59679         6.10233
     2010.73785         6.56526         7.11409
     2010.74058         5.80974         7.76860
     2010.74332        -2.41179         6.38107
     2010.74606         3.33269         6.35460
     2010.74880         4.81216         6.41988
     2010.75154         5.57263         5.45487
     2010.75416         0.23684         5.21935
     2010.75701        -4.27242         4.97501
     2010.75975         3.04505         4.90356
     2010.76249         3.35953         4.90003
     2010.76522         7.19500         4.94325
     2010.76796         7.95248         5.05528
     2010.77070        -1.88305         5.06939
     2010.77344         1.34642         5.18759
     2010.77618        -1.94110         5.01294
     2010.77891        -0.60063         5.02794
     2010.78165         3.95084         5.22464
     2010.78439         2.92832         5.69215
     2010.78713        12.90479         6.63158
     2010.78987        -2.11973         6.25493
     2010.79260        -1.14626         6.35460
     2010.79534        -1.43979         6.92532
     2010.79808         4.41569         7.31344
     2010.80082         0.90916         6.86181
     2010.80355         9.61263         5.16819
     2010.80629         4.60811         5.11262
     2010.80903         8.86758         5.12408
     2010.81177         8.44906         6.45252
     2010.81451        11.27253         6.33343
     2010.81724         5.66500         6.91385
     2010.81998         1.66248         8.63041
     2010.82272        -0.24905        10.52956
     2010.82546       -27.72158        13.15996
     2010.82820        -5.27010        10.68569
     2010.83093       -28.14263        31.77038
     2010.83366       -25.58119        24.67746
     2010.83873       -30.24620        25.16261
     2010.84210        -8.56422        18.98002
     2010.84462         4.63474        12.03705
     2010.84736       -21.13179        16.07969
     2010.85295        12.79444        37.79949
     2010.85557        12.75164        29.60836
     2010.85781       -12.94307       106.92919
     2010.86114       -71.27319        59.87830
     2010.86333       -25.51602       133.79424
     2010.86633       -19.58993        56.94269
     2010.88858        30.07867        27.88122
     2011.00889         0.34117         5.00412
     2011.01163         1.84664         5.10291
     2011.01437        -6.05589         5.69303
     2011.01711         6.58059         7.60541
     2011.01984         1.44606         7.14320
     2011.02258        -6.67046         6.59542
     2011.02532        -3.68899         6.52838
     2011.02806        -2.17452         5.97266
     2011.03080       -15.23704         6.52926
     2011.03353       -11.23957        10.00559
     2011.03627       -27.45110        11.68069
     2011.03901        -2.65062        13.99883
     2011.04454       -45.57455        27.48252
     2011.04722         0.00280        15.49927
     2011.04988       -32.14991        40.40343
     2011.05274       -52.56916        27.15262
     2011.05535        -4.10198        33.15791
     2011.07463       -29.16738        73.39639
     2011.08832       -73.22703        36.88123
     2011.09103         5.92739        20.89151
     2011.09377       -12.05715         8.89151
     2011.09643       -37.75485        33.82742
     2011.14580       -59.17111       100.84627
     2011.14852       -72.06467        51.85830
     2011.15086       -14.30314         8.63394
     2011.15400        -8.64272         4.81623
     2011.15674        -6.06425         4.82417
     2011.15948        -8.51678         4.90356
     2011.16221       -14.34930         4.84093
     2011.16495       -17.65683         5.02617
     2011.16769       -18.15136         4.85416
     2011.17864       -14.19346         4.80036
     2011.18138       -20.17499         4.80918
     2011.18412       -21.97251         4.90797
     2011.18685        -9.63104         4.90003
     2011.18959       -17.05257         4.86739
     2011.19233       -18.13609         4.89033
     2011.19507       -14.92062         4.81535
     2011.19780       -15.79214         5.09497
     2011.20054       -17.26967         5.14349
     2011.20328       -14.53420         5.11173
     2011.20602       -15.54672         5.04293
     2011.20876       -17.32525         4.92385
     2011.21149       -16.15678         5.04470
     2011.21399       -20.83387         5.30844
