# ================= DQRFIT RESULTS ================
# INPUT FILE: series/TRIN.rad
# OUTPUT: LDETRENDED
# FILTER FUNCTION: f(t)
# f(t)=+line(t)
# line(t)=+P 1+P 2*t
# heav(t)=(t<0?0:1)
# TOTAL OBSERVATIONS MTOT=  477
# INITIAL TIME INTERVAL= 2018.5407 - 2004.7885 = 13.7522
# TOTAL OBSERVATIONS AFTER PREFILTER M=  477
# TIME-SPAN=    0.0000 -    0.0000 =  0.0000
# OBSERVATIONS: USED M=   477 REJECTED MTOT-M=     0 %USED=  100.0000
# N=  2 PARAMETERS
# MAXSIG= 175.00000
# MAXRES=  17.83705
# SCALE FACTOR FOR LENGTHS: SCL=  10.00000
# SCALE FACTOR FOR SIGMAS: SCLSIG=   1.00000
# CHI^2=    469.492 DOF=   475 CHI^2/DOF=   0.98840
# RMS=      5.795 SDEV=      5.800 MEAN=   -0.05438
#  P #       PARAMETER +-    SIGMA %error PARAMETER NAME
# P 1 =      1330.24627 +-  116.639   8.77 YZERO                              
# P 2 =        -0.65939 +-    0.058   8.79 SLOPE                              
#       T            LDETRENDED       SIG_OBS
     2004.78851        13.68244         5.79113
     2004.79124         7.94724         5.72253
     2004.79398        17.83705         5.82891
     2004.79672        11.95485         5.79908
     2004.79946        17.29266         5.80405
     2004.80220        11.97346         5.84183
     2004.80493         0.18727         5.73048
     2004.80767         4.12307         5.81797
     2004.81041        -1.06812         5.78616
     2004.81315        -2.48732         5.66984
     2004.81588         9.06149         5.70961
     2004.81862        12.33430         5.91739
     2004.82136         4.53910         5.80803
     2004.82410         7.45991         5.71756
     2004.82684         0.41171         5.72452
     2004.82957         9.76152         5.84780
     2004.83231         9.42132         5.74838
     2005.20740        -3.53235         5.87365
     2005.21013        -2.58754         5.82791
     2005.21287        -1.64374         5.74838
     2005.55237        -0.60988         5.85674
     2005.55510         1.30693         5.96809
     2005.55784        -4.10627         6.09237
     2005.56058        -6.24846         6.01482
     2005.56332        -6.04066         5.92833
     2005.56606         0.06515         6.08740
     2005.56879         1.88895         6.09734
     2005.57153        -5.80124         6.16792
     2005.57427        -6.95944         6.00985
     2005.57701        -3.37363         6.05260
     2005.57974        -2.70083         6.14208
     2005.58248         2.13298         5.95815
     2005.58522        -0.33022         6.03967
     2005.58796        -0.97041         5.82593
     2005.59070        -0.51261         5.82791
     2005.59343        -3.98380         5.85973
     2005.59617         6.50001         5.75236
     2005.59891        -6.14219         5.92435
     2005.60165         2.59462         5.82791
     2005.60439        -6.83658         5.93330
     2005.60712        -2.91577         5.85277
     2005.60986         0.40103         5.95318
     2005.61260        -4.01416         5.93926
     2005.61534         1.35264         5.85177
     2005.61807         0.97945         5.87166
     2005.62081        -0.74975         5.81399
     2005.62355        -1.59594         6.02973
     2005.62629         4.67686         5.83487
     2005.62903        -0.70733         5.94523
     2005.63176        -1.04053         5.96312
     2005.63450         2.89628         5.84581
     2005.63724         3.28308         5.84183
     2005.63998         4.16989         5.92435
     2005.95209        -8.44730         5.79908
     2005.95483       -11.11950         5.98201
     2005.95757        -7.45069         5.86072
     2005.96031        -0.27589         5.76528
     2005.96304        -0.98608         5.62709
     2005.96578        -0.94928         5.79113
     2005.96852        -9.75647         6.01482
     2005.97110       -10.68177         6.28325
     2006.66667        -7.03312         6.26038
     2006.66941       -10.04631         6.24647
     2006.67215        -9.26251         6.18980
     2006.67488        -6.49670         6.31208
     2006.67762        -9.40390         6.35284
     2006.68036        -8.84809         6.18284
     2006.68310         3.91772         6.43337
     2006.68584        -3.12348         6.45326
     2006.68857        -4.83167         6.06552
     2006.69131        -5.13987         6.05359
     2006.69405        -4.74006         6.03172
     2006.69679        -4.90426         6.02973
     2006.69953        -3.56145         6.10032
     2006.70226         2.41935         6.27828
     2006.70500         1.93016         6.06453
     2006.70774        -2.24504         5.90248
     2006.71048         0.48677         5.87862
     2006.71321         0.04957         5.91043
     2006.71595        -0.10162         6.00886
     2006.71869        -5.84082         5.89552
     2006.72143         3.88799         6.02178
     2006.72417         2.22880         6.28126
     2006.72690         2.17560         6.01383
     2006.72964         0.00041         6.09535
     2006.73238         0.83121         5.95119
     2006.73512        -0.64098         5.84084
     2006.73786        -0.38018         5.89353
     2006.74059        -1.03837         5.90347
     2006.74333         3.39943         6.04663
     2006.74607         0.01224         6.01681
     2006.74881         1.77704         5.96113
     2006.75154         5.84685         6.01184
     2006.75428        -1.67635         6.01581
     2006.75702         0.92446         6.03967
     2006.75976         6.77426         5.91838
     2006.76250         5.39807         5.92137
     2006.76523        -3.36913         6.15202
     2006.76797         1.55168         6.06851
     2006.77071        -7.93351         6.08242
     2006.77345         1.69829         6.10032
     2006.77619         4.79210         6.01482
     2007.25805         1.48183         5.82891
     2007.26079         0.92364         5.85873
     2007.26352         4.99244         5.74639
     2007.26626         8.80525         5.68873
     2007.26900         5.84005         5.85177
     2007.27174        12.42686         5.81101
     2007.27447         6.64866         5.81101
     2007.27721        15.88047         5.71855
     2007.27995         4.69527         5.71259
     2007.28269         7.39408         5.71557
     2007.28543         5.38388         5.72054
     2007.28816         6.38569         5.83984
     2007.29090         4.29750         5.73048
     2007.29364         9.58230         5.68376
     2007.29638         5.86011         5.79511
     2007.29911         1.13091         5.72651
     2007.30185         3.90672         5.80008
     2007.30459         2.44652         6.04067
     2007.30733       -12.06267         6.62326
     2007.31007         0.58213         5.83487
     2007.31280         4.10894         5.80306
     2007.31554         4.27174         5.69867
     2007.31828         3.11055         5.75335
     2007.32102         3.35435         5.72651
     2007.32376         2.34816         5.72949
     2007.32649         8.85096         5.69768
     2007.32923         4.77577         5.65691
     2007.33197         7.78058         5.84183
     2007.33471         0.61638         5.96312
     2007.33744        -2.04781         5.73347
     2007.34018        -1.62301         5.71259
     2007.34292         1.14680         5.65890
     2007.34566         2.89260         5.70762
     2007.34840         3.70041         5.69569
     2007.35113        -1.38079         5.80803
     2007.35387         2.22602         6.17290
     2007.35661        -0.41218         6.11921
     2007.35935         0.55763         5.75335
     2007.36209        -3.92157         5.73943
     2007.36482         0.68024         5.78318
     2007.36756        -1.07396         5.75931
     2007.89049        -2.49114         5.80803
     2007.89323         3.17367         5.91640
     2007.89597         4.80847         5.96113
     2007.89870         1.10628         5.83786
     2007.90144         0.23508         5.78516
     2007.90418        -3.30511         6.15301
     2007.90692        -1.13531         5.85078
     2007.90966        -1.06850         5.87862
     2007.91239         5.28230         5.82891
     2007.91513         3.88311         5.91739
     2007.91787         2.04791         5.99394
     2007.92061        -8.98228         6.38167
     2007.92334        -1.17848         6.09038
     2007.92608         6.69733         5.89353
     2007.92882         5.00713         5.89055
     2007.93156       -14.57006         5.94125
     2007.93430         2.05374         5.91640
     2007.93703         0.59155         6.06751
     2007.93977        -2.64364         5.91640
     2007.94251         4.17716         6.22360
     2007.94525        -1.88403         6.08342
     2007.94799        -2.97023         6.13015
     2007.95072         5.22258         6.02079
     2007.95346         2.01838         6.47314
     2007.95620         1.05219         6.12120
     2007.95894         9.80599         5.95417
     2007.96167         7.69080         6.18781
     2007.96441         0.64460         6.06453
     2007.96715        -2.60959         6.39261
     2007.96989        -4.83479         6.18582
     2007.97263        -3.10698         6.02377
     2007.97536       -10.28518         6.01979
     2007.97810         5.17763         6.17588
     2007.98084         0.72244         6.08740
     2007.98358         4.20224         6.05956
     2007.98632         5.43605         5.99394
     2007.98905         4.85285         5.98499
     2007.99727         3.11027         6.27629
     2008.00000        -7.47193         6.09634
     2008.00274        -5.24212         5.83984
     2008.00548         5.42368         6.02675
     2008.00822         2.91249         5.83686
     2008.03560        -3.72746         5.81499
     2008.03833        -4.72665         6.18880
     2008.04107        -6.91985         6.10728
     2008.04381        -2.81704         6.07447
     2008.04655        -2.62524         6.21664
     2008.04929        -5.88543         5.94026
     2008.05202        -1.68463         5.94125
     2008.05476         0.33318         5.79113
     2008.05750        -3.76802         6.20073
     2008.06024        -1.36821         6.05956
     2008.06298         2.39459         5.73247
     2008.06571         2.02040         5.95517
     2008.06845        -1.96479         5.86868
     2008.07119         5.64301         5.80306
     2008.07393         2.65982         5.88061
     2008.07666         7.40562         6.21962
     2008.07940        -4.27557         6.13611
     2008.08214        -3.32077         5.92435
     2008.08488        -2.28796         6.00388
     2008.08762        -2.12716         5.72054
     2008.09035         4.90365         5.71557
     2008.09309         0.90145         5.70463
     2008.09583         1.46026         5.83984
     2008.09857         3.55006         5.86669
     2008.10131         1.75387         5.95915
     2008.10404         1.83467         5.77124
     2008.10678        -0.65152         6.30313
     2008.10952        -3.90471         6.64911
     2008.11226        -2.07391         6.42741
     2008.11499        -2.84210         6.26834
     2008.11773        -0.95330         5.83388
     2008.12047        -1.47649         5.98002
     2008.12321         0.72931         6.63320
     2008.12595        -2.13488         6.29319
     2008.12868        -3.89208         6.49302
     2008.13142        -0.24427         5.83487
     2009.36619        -9.88208         5.87961
     2009.36893        -5.00227         5.84979
     2009.37167       -11.42846         5.83189
     2009.37441       -14.46066         5.73744
     2009.37714       -20.45685         5.77423
     2009.37988       -11.05405         5.85078
     2009.38262        -3.61424         5.76727
     2009.38536       -11.94844         5.82791
     2009.38810       -11.80163         5.70364
     2009.39083       -10.77183         5.71060
     2009.39357       -10.44702         5.80405
     2009.39631       -12.12122         5.83686
     2009.39905        -6.61441         5.71656
     2009.40178        -6.91061         5.79013
     2009.40452        -6.32880         5.76627
     2009.40726        -5.13400         5.83090
     2009.41000        -8.62019         5.83090
     2009.41274       -10.99138         5.74341
     2009.41547        -3.40558         5.85376
     2009.41821        -8.23077         5.79312
     2009.42095        -9.55797         5.77721
     2009.42369        -4.87416         5.82195
     2009.42643       -18.00536         5.77820
     2009.42916        -9.07555         5.76627
     2009.43190        -8.63375         5.80306
     2009.43464        -4.83994         5.83288
     2009.43738        -5.44514         5.78417
     2009.44011        -7.38233         5.75832
     2009.44285        -6.64153         5.76429
     2009.44559       -11.08072         5.74043
     2009.44833       -11.40892         5.73446
     2009.45107       -12.58911         5.86569
     2009.45380        -1.68030         5.80902
     2009.45654        -4.53750         5.70563
     2009.45928       -11.13269         5.76230
     2009.46202        -8.41089         5.79013
     2009.46475        -8.23908         5.92137
     2009.46749        -8.44128         5.97804
     2009.47023       -11.61147         5.79908
     2009.47297        -4.29667         5.67481
     2009.47571       -10.78386         5.75434
     2012.12321         5.23488         5.64200
     2012.12595         1.39868         5.64697
     2012.12868        -3.36151         5.65194
     2012.13142        -3.04071         5.77025
     2012.13416         0.58110         5.72849
     2012.13690        -2.20410         5.70165
     2012.13964         1.08171         5.83090
     2012.14237        -0.40948         5.91938
     2012.14511         1.94332         5.82195
     2012.14785        -5.25187         5.64797
     2012.15059        -1.33807         5.63405
     2012.15332        -1.30626         5.61416
     2012.15606         0.17854         5.67580
     2012.15880         3.04535         5.85376
     2012.16154         0.65315         5.66487
     2012.16428        -2.91204         5.79312
     2012.16701        -2.15724         5.73247
     2012.16975        -3.22643         5.61814
     2012.17249        -3.54863         5.57539
     2012.17523        -0.85882         5.70662
     2012.17797        -1.60502         5.73048
     2012.18070         1.06379         5.67779
     2012.18344        -6.59441         5.78218
     2012.18618        -7.52160         5.76627
     2012.18892        -2.05379         5.59428
     2012.19165         5.98901         5.96014
     2012.19439         1.39382         5.81499
     2012.19713        13.47762         5.70066
     2012.19987         1.92043         5.68276
     2012.20261         4.79623         5.74043
     2012.20534         6.37604         5.71557
     2012.20808         4.19584         5.71259
     2012.21082         2.01565         5.63902
     2012.21356         2.27245         5.57340
     2012.21629        -4.21274         6.57554
     2012.21903        -1.13794         5.81698
     2012.22177         1.78087         6.04663
     2013.61534        10.92978         5.76926
     2013.61807        11.19958         5.68475
     2013.62081        10.11939         5.55650
     2013.62355         5.97019         5.65691
     2013.62629         4.72900         5.66984
     2013.62903         6.05180         5.60223
     2013.63176        10.69761         5.60621
     2013.63450        12.22141         5.78715
     2013.63724         4.13022         5.82493
     2013.63998        13.55702         5.68276
     2013.64272         4.58383         5.53363
     2013.64545         6.77063         5.59527
     2013.64819         7.99744         5.61814
     2013.65093         5.93224         5.66487
     2013.65367         7.01905         5.61317
     2013.65640        14.15785         5.66785
     2013.65914        12.11566         5.85575
     2013.66188         7.17447         5.66984
     2013.66462         4.81827         5.58732
     2013.66736         7.05408         5.69867
     2013.67009         8.62088         5.69768
     2013.67283         9.76269         5.74440
     2013.67557        15.65649         5.85774
     2013.67831        16.21030         5.81300
     2013.68105        12.55010         5.65493
     2013.68378        11.60191         5.66487
     2013.68652         4.60171         5.60025
     2013.68926        10.81952         5.59726
     2013.69200        13.63932         5.62112
     2015.54005        -3.30509         5.79610
     2015.54278        -4.62928         6.19079
     2015.54552         1.01652         5.92435
     2015.54826        -1.39267         5.83885
     2015.55100         1.83313         5.77124
     2015.55374         4.96594         5.87365
     2015.55647         4.73674         5.84680
     2015.55921         0.18155         5.76429
     2015.56195        -2.48365         5.79312
     2015.56469         1.07216         5.76329
     2015.56742         2.53197         5.72949
     2015.57016         2.07177         5.99891
     2015.57290        -0.99642         6.02178
     2015.57564        -2.69962         5.81897
     2015.57838        -2.29781         5.79013
     2015.58111         2.12499         5.75434
     2015.58385        -0.84520         5.80008
     2015.58659        -0.85040         5.95716
     2015.58933        -4.27859         5.85376
     2015.59206         2.36221         5.89055
     2015.59480         3.64302         5.77323
     2015.59754         6.28682         5.79511
     2015.60028         2.37663         5.91739
     2015.60302         3.00943         5.96312
     2015.60575        -2.36976         5.90745
     2015.60849        -0.88095         5.79411
     2015.61123         0.29585         5.76627
     2015.61397        -1.45834         5.85873
     2015.61671         1.59646         5.82095
     2015.61944         5.34827         5.71060
     2015.62218         1.41107         5.67183
     2015.62492         3.58088         5.64697
     2015.62766         3.09368         5.61715
     2015.63039         3.27849         5.67381
     2015.63313         0.00429         5.73446
     2015.63587         4.12010         5.70961
     2015.63861         1.59490         5.65493
     2015.64135         4.27771         5.65294
     2015.64408        -2.98749         5.69469
     2015.64682        -2.76568         5.78218
     2015.64956        -1.47488         5.63206
     2015.65230        -0.15707         5.70165
     2015.65504         5.20374         5.62411
     2015.65777        -0.53146         5.98997
     2015.66051        -3.37765         5.71060
     2015.66325         3.19315         5.65592
     2015.66599         3.03396         5.82195
     2015.66872         9.99776         5.83090
     2015.67146        11.43357         5.76429
     2015.67420         9.53037         5.78616
     2015.67694         7.49618         5.73048
     2015.67968         1.42898         5.65194
     2015.68241        -0.42721         5.66884
     2015.68515        -1.04141         5.65493
     2015.68789         1.12740         5.67779
     2015.69063        -0.21180         5.72551
     2015.69337        -0.93599         5.84084
     2015.69610        -0.19318         5.69768
     2015.69884        -2.09738         5.80107
     2015.70158         3.90643         5.74639
     2015.70432         0.77523         5.84084
     2015.70705         0.57304         5.78616
     2015.70979         2.42584         5.69668
     2015.71253        -6.40935         5.78715
     2015.71527        -5.67655         5.79511
     2015.71801        -0.17774         5.70662
     2015.72074         5.94406         5.66785
     2015.72348        -0.99313         5.72949
     2015.72622        -4.17733         5.75335
     2015.72896        -8.34552         5.80008
     2015.73170        -5.73772         5.72949
     2015.73443        -7.19891         5.80405
     2015.73717        -2.68511         5.65294
     2015.73991        -1.64530         5.90447
     2015.74265        -1.90949         5.94224
     2015.74538         2.64131         6.07547
     2015.74812        -5.12288         5.99692
     2015.75086        -4.90708         5.62212
     2015.75360         1.33073         5.75534
     2015.75634         5.64853         5.71557
     2018.35456        -1.02522         5.50381
     2018.35729        -1.94442         5.45907
     2018.36003        -2.43761         5.40837
     2018.36277        -2.60581         5.53264
     2018.36551        -3.38500         5.47796
     2018.36825        -0.94520         5.52170
     2018.37098        -3.35239         5.50182
     2018.37372        -2.43459         5.51276
     2018.37646        -6.30078         5.71458
     2018.37920        -0.76498         5.49983
     2018.38193         1.08583         5.68475
     2018.38467         3.49564         5.48790
     2018.38741        -8.26756         5.44416
     2018.39015        11.37025         5.49586
     2018.39289        -2.13495         5.50480
     2018.39562        -3.02014         5.51673
     2018.39836         2.61966         5.49586
     2018.40110         0.94547         5.57937
     2018.40384         0.10027         5.55849
     2018.40658         0.62908         5.54159
     2018.40931         8.86888         5.73247
     2018.41205        10.77769         5.51077
     2018.41479        -4.20251         5.52866
     2018.41753        -6.95170         5.50480
     2018.42026        -5.79890         5.48790
     2018.42300        -0.34009         5.55352
     2018.42574        -0.83328         5.52568
     2018.42848        -1.04348         5.57539
     2018.43122         0.02833         5.50083
     2018.43395        -9.00687         5.51176
     2018.43669         1.68994         5.56048
     2018.43943         2.11674         5.60621
     2018.44217         0.30355         5.57042
     2018.44491        -4.87665         5.50281
     2018.44764        -2.98184         5.57638
     2018.45038         2.31496         5.61317
     2018.45312        -4.06823         5.54059
     2018.45586         0.38657         5.58633
     2018.45859         0.16038         5.62709
     2018.46133        -2.24682         5.55551
     2018.46407        -7.09901         5.57738
     2018.46681        -0.73421         5.54457
     2018.46955        -2.51540         5.56943
     2018.47228        -4.17659         5.66984
     2018.47502         1.56821         5.59726
     2018.47776        -1.43498         5.55849
     2018.48050        -5.13418         5.64001
     2018.48324        -5.77037         5.56048
     2018.48597        -6.44357         5.61019
     2018.48871         4.50424         5.53363
     2018.49145         2.01604         5.51176
     2018.49419        -4.34515         5.64498
     2018.49692        -3.80535         5.59527
     2018.49966        -2.31454         5.56644
     2018.50240        -3.04174         5.57937
     2018.50514        -5.01193         5.57141
     2018.50788        -4.11513         5.56346
     2018.51061        -6.31632         5.60025
     2018.51335        -1.06351         5.57638
     2018.51609        -5.34971         5.60522
     2018.51883        -1.76090         5.57241
     2018.52157         0.03390         5.54855
     2018.52430        -3.86729         5.55650
     2018.52704         0.71251         5.62510
     2018.52978        -1.63468         5.59726
     2018.53252        -4.17188         5.56048
     2018.53525        -0.20107         5.55153
     2018.53799         1.72973         5.63405
     2018.54073         2.46254         5.58334
