# ================= DQRFIT RESULTS ================
# INPUT FILE: series/TULE.rad
# OUTPUT: LDETRENDED
# FILTER FUNCTION: f(t)
# f(t)=+line(t)
# line(t)=+P 1+P 2*t
# heav(t)=(t<0?0:1)
# TOTAL OBSERVATIONS MTOT=  203
# INITIAL TIME INTERVAL= 2019.2632 - 2006.4367 = 12.8265
# TOTAL OBSERVATIONS AFTER PREFILTER M=  203
# TIME-SPAN=    0.0000 -    0.0000 =  0.0000
# OBSERVATIONS: USED M=   203 REJECTED MTOT-M=     0 %USED=  100.0000
# N=  2 PARAMETERS
# MAXSIG= 175.00000
# MAXRES=  12.84656
# SCALE FACTOR FOR LENGTHS: SCL=  10.00000
# SCALE FACTOR FOR SIGMAS: SCLSIG=   1.00000
# CHI^2=    213.550 DOF=   201 CHI^2/DOF=   1.06244
# RMS=      5.872 SDEV=      5.886 MEAN=   -0.01391
#  P #       PARAMETER +-    SIGMA %error PARAMETER NAME
# P 1 =      2306.32737 +-  204.237   8.86 YZERO                              
# P 2 =        -1.14282 +-    0.101   8.86 SLOPE                              
#       T            LDETRENDED       SIG_OBS
     2006.43669        -4.44540         6.08965
     2006.43943        -7.08328         6.08037
     2006.44217         4.92185         6.08140
     2006.44491        -3.40302         6.04635
     2006.44764        -5.15489         6.16283
     2006.45038        -7.24376         6.08243
     2006.45312        -3.20763         5.99894
     2006.45586        -1.13250         6.09068
     2006.45859        -4.73337         6.13809
     2006.46133        -0.15324         6.18757
     2006.46407        -2.88912         6.28755
     2006.46681        -3.96099         6.21230
     2006.46955        -1.68486         6.20612
     2006.47228        -5.07673         6.19478
     2006.47502        -2.01760         6.20818
     2006.47776        -5.51547         6.17623
     2006.48050       -11.87834         6.19891
     2006.48324       -10.87921         6.30713
     2006.48597        -4.74408         6.35352
     2006.48871        -2.89596         6.16798
     2011.72896         7.38668         5.87319
     2011.73170         0.03981         5.98863
     2011.73443        -2.05106         5.84433
     2011.73717         9.87307         5.80619
     2011.73991         4.79919         5.85051
     2011.74265         1.74632         5.88247
     2011.74538         4.87345         6.28755
     2011.74812         4.46958         6.48545
     2011.75086         3.99671         6.13500
     2011.75360        -3.37016         6.20200
     2011.75634        -3.47603         6.01337
     2011.75907         4.68510         6.19891
     2011.76181         3.42923         5.89793
     2011.76455         9.70535         5.93091
     2011.76729         3.78448         5.86907
     2011.77003         2.46161         6.13912
     2011.77276        10.73074         6.01131
     2011.77550         9.55387         6.58234
     2011.77824         3.30000         6.35042
     2011.78098         3.28313         6.17417
     2011.78371         0.86826         6.42567
     2011.78919        -0.58849         5.87113
     2011.79193         0.64764         5.92782
     2011.79467        -0.20923         5.79691
     2011.79740         2.37790         6.35249
     2011.80014         7.08403         6.83281
     2011.80288         2.01416         6.63903
     2011.80562        -0.74871         6.65346
     2011.80836         0.19842         6.71737
     2011.81109         3.33654         6.81220
     2011.81657         3.19980         6.24323
     2011.81931         4.65293         6.51638
     2011.82204         2.63106         6.72252
     2011.83300        -2.70242         6.77818
     2011.83573        -1.14630         6.76066
     2011.95894         4.53150         6.88950
     2014.58180         2.33395         6.11335
     2014.58454         9.17808         5.97111
     2014.58727        -0.83179         6.23498
     2014.59001         1.85234         6.12985
     2014.59275         4.82146         6.02883
     2014.59549        -2.92641         6.06285
     2014.65024         2.92217         6.02677
     2014.65298         8.29830         5.97317
     2014.68036         3.41659         6.03192
     2014.68310         2.21972         5.98657
     2014.72964         5.93091         5.92473
     2014.73238        -5.24496         6.75035
     2018.62560         4.91527         5.88350
     2018.62834         1.71940         5.68766
     2018.63108         5.64753         5.82887
     2018.63382         1.04166         5.84433
     2018.63656         9.78979         5.77527
     2018.63929        -0.30908         5.97420
     2018.64203         2.76605         5.94534
     2018.64477         7.81018         5.68869
     2018.64751         2.04830         5.75362
     2018.65024        10.55543         5.70930
     2018.65298        12.84656         5.79073
     2018.65572         4.48969         5.71033
     2018.65846         2.05782         5.78764
     2018.66120        10.95095         5.90514
     2018.66393         7.05708         5.70827
     2018.66667         3.25321         5.68353
     2018.66941         2.71433         5.71239
     2018.67215        -0.53954         5.70312
     2018.67488         3.92859         5.80516
     2018.67762         2.43972         5.80722
     2018.68036         2.08985         5.89999
     2018.68310        -5.58602         5.90720
     2018.68584         3.33411         5.74744
     2018.68857         5.30424         5.69693
     2018.69131        -2.47363         5.71652
     2018.69405         1.77649         5.92473
     2018.69679         5.22362         5.68972
     2018.69953        -3.66925         5.77012
     2018.70226         0.27088         5.81856
     2018.70500         4.05201         5.93813
     2018.70774         1.32614         5.84536
     2018.71048         0.98727         5.74435
     2018.71321         5.04040         5.75672
     2018.71595         5.78553         5.79485
     2018.71869        -4.19835         5.70209
     2018.72143        -1.55522         5.81650
     2018.72417        -4.17709         5.71755
     2018.72690         1.63604         5.70415
     2018.72964         2.32817         5.68766
     2018.73238        -3.93070         5.82681
     2018.73512        -4.37057         5.79382
     2018.73786        -0.17644         5.71239
     2018.74059        -1.60631         5.72992
     2018.74333         1.20081         5.86597
     2018.74607         2.41394         5.66807
     2018.74881        -4.05993         5.72476
     2018.75154        -3.24080         5.84639
     2018.75428         3.50533         5.72270
     2018.75702        -1.10354         5.75775
     2018.75976        -2.45141         5.65776
     2018.76250         4.68172         5.82681
     2018.76523        -5.44516         5.93400
     2018.76797         2.26297         5.77527
     2018.77071         1.27610         5.77115
     2018.77345         3.25423         5.68766
     2018.77619         4.56136         5.65570
     2018.77892         6.16149         5.65467
     2018.78166         7.01862         5.84021
     2018.78440         8.43275         5.70415
     2018.78714         0.51988         5.73198
     2018.78987        -4.19500         5.92679
     2018.79261        -1.12887         5.62890
     2018.79535         5.01326         5.70106
     2018.79809         0.09939         5.67838
     2018.80083         2.28652         5.68766
     2018.80356         3.93065         5.72270
     2018.80630         3.73478         5.91339
     2018.80904         4.16091         5.72373
     2018.81178         4.35204         6.01028
     2018.81452        -4.91984         5.77939
     2018.81725         1.50329         5.77630
     2018.81999         5.58842         5.78661
     2018.82273         2.52055         5.78455
     2018.82547         1.26468         5.78558
     2018.82820         2.79181         5.77733
     2018.83094        -1.47406         5.76084
     2018.83368         4.76107         5.71549
     2018.83642        11.29120         5.80001
     2018.83916         6.43332         5.74847
     2018.84189         7.46845         5.82371
     2018.84463         7.83758         5.79795
     2018.84737         1.88571         5.71755
     2018.85011         3.06184         5.73610
     2018.85285         1.25497         5.76187
     2018.85558        -1.24390         5.78042
     2018.85832         0.95923         5.75362
     2018.86106         3.15835         5.70621
     2018.86380         1.52548         5.77115
     2018.86653         5.46661         5.73095
     2018.86927        -4.01626         5.76702
     2018.87201        -0.63213         5.76702
     2018.87475         4.93600         5.73095
     2018.87749         5.08313         5.75465
     2018.88022         2.27826         5.78970
     2018.88296         4.36039         5.74125
     2018.88570         2.80951         5.76908
     2018.88844         9.99564         5.84536
     2018.89118        -8.11123         5.80207
     2018.89391       -16.88910         5.84227
     2018.89665        -0.16297         6.11541
     2018.89939         1.33616         5.75568
     2018.90213         3.70829         5.72064
     2018.90486         0.40442         5.83505
     2019.13484        -1.07276         6.10923
     2019.13731         6.72506         6.37826
     2019.15127       -10.24399         5.71342
     2019.15401       -11.71986         5.71652
     2019.16222        -9.56047         6.71737
     2019.18139        -4.86157         6.55039
     2019.18413       -14.38644         6.71119
     2019.19234        -4.14605         5.71961
     2019.19781        -6.89580         5.72682
     2019.20055        -9.23767         5.84021
     2019.20329       -10.19454         5.67838
     2019.20603       -10.10441         5.66910
     2019.20877       -11.43428         5.67632
     2019.21150        -8.65515         5.71858
     2019.21424        -6.73902         5.74847
     2019.21698        -6.38989         5.65570
     2019.21972        -6.88576         5.90102
     2019.22246       -13.82864         5.73198
     2019.22519        -6.86651         5.65055
     2019.22793        -4.42438         5.71239
     2019.23067       -14.64225         5.74744
     2019.23341       -15.17312         5.78042
     2019.23614        -9.70099         5.69281
     2019.23888        -9.43586         5.72167
     2019.24162       -11.54473         5.83093
     2019.24436        -6.65160         5.84639
     2019.24710        -7.87048         5.68456
     2019.24983        -9.22535         5.73404
     2019.25531        -8.54609         5.76187
     2019.25805        -7.76796         5.75775
     2019.26079       -12.15583         5.85670
     2019.26324        -9.42003         6.73489
