# ================= DQRFIT RESULTS ================
# INPUT FILE: series/TURT.rad
# OUTPUT: LDETRENDED
# FILTER FUNCTION: f(t)
# f(t)=+line(t)
# line(t)=+P 1+P 2*t
# heav(t)=(t<0?0:1)
# TOTAL OBSERVATIONS MTOT=  377
# INITIAL TIME INTERVAL= 2019.5045 - 2009.8809 =  9.6235
# TOTAL OBSERVATIONS AFTER PREFILTER M=  377
# TIME-SPAN=    0.0000 -    0.0000 =  0.0000
# OBSERVATIONS: USED M=   377 REJECTED MTOT-M=     0 %USED=  100.0000
# N=  2 PARAMETERS
# MAXSIG= 175.00000
# MAXRES=  28.83297
# SCALE FACTOR FOR LENGTHS: SCL=  10.00000
# SCALE FACTOR FOR SIGMAS: SCLSIG=   1.00000
# CHI^2=    430.755 DOF=   375 CHI^2/DOF=   1.14868
# RMS=      7.929 SDEV=      7.940 MEAN=   -0.00391
#  P #       PARAMETER +-    SIGMA %error PARAMETER NAME
# P 1 =     -1809.81139 +-  287.375  15.88 YZERO                              
# P 2 =         0.89990 +-    0.143  15.86 SLOPE                              
#       T            LDETRENDED       SIG_OBS
     2009.88091         5.23670         8.33298
     2009.88365         4.16324         8.01466
     2009.88638         2.89478         8.12720
     2009.88912         2.36631         8.11648
     2009.89186         0.42885         8.10790
     2009.89460         7.96838         7.96429
     2009.89734        -0.45508         7.92142
     2009.90007        -0.74654         7.84425
     2009.90281        -2.10001         7.96643
     2009.90555         5.99953         8.04789
     2009.90829         3.61807         8.01037
     2009.91102        -0.29240         7.92999
     2009.91376         2.15214         7.88283
     2009.91650         2.90567         8.03717
     2009.91924        -1.81479         8.03610
     2009.92198        -1.38125         7.95786
     2009.92471        -0.91072         7.96965
     2009.92745         3.02482         7.88176
     2009.93019         2.30836         7.93321
     2009.93293        -7.17411         7.94607
     2009.97947       -11.46299         7.92785
     2009.98221       -10.71146         7.85282
     2009.98495         3.24508         7.77244
     2009.98768        -4.99238         8.43372
     2010.00685       -13.26763         8.55912
     2010.03423       -12.87327         8.12291
     2010.03697        -7.40473         8.28260
     2010.03970        -5.30820         8.01466
     2010.04244        -1.91466         7.87212
     2010.04518        11.97588         7.94500
     2010.06161         6.36609         8.89351
     2010.07803        -7.21069         7.90963
     2010.08077        -2.21015         7.90963
     2010.08625         7.85992         8.01359
     2010.08898        11.31846         8.31690
     2010.09172         3.66899         7.86997
     2010.09446         7.24653         8.20651
     2010.09994         7.25260         7.86247
     2010.11363         3.52028         7.90105
     2010.11636        10.82482         7.91927
     2010.11910         6.37635         7.86997
     2010.12184         1.56089         7.76815
     2010.12458         4.68243         7.93642
     2010.12731        -0.70304         8.02324
     2010.13005         0.21250         7.98036
     2010.13279        -2.47596         8.00609
     2010.13553         2.17557         8.02324
     2010.13827         6.02411         7.93321
     2010.14100        -1.87636         7.80888
     2010.14374       -15.46882         8.27403
     2010.14648         4.59372         8.23544
     2010.14922        -3.29675         8.18614
     2010.15196        -4.76521         7.93213
     2010.15469         0.89733         8.06075
     2010.15743         2.05086         8.03610
     2010.16017        -4.60560         7.82603
     2010.16291         3.20693         7.87640
     2010.16564        -0.03453         7.99644
     2010.16838         9.25501         7.93428
     2010.17112         7.55554         7.76923
     2010.17386        -1.14492         7.80674
     2010.17660         0.27262         7.90427
     2010.17933         6.89515         7.74458
     2010.18207        10.80769         7.81853
     2010.18481         4.07722         7.80888
     2010.18755         3.81476         7.80031
     2010.19029        -2.02970         7.78852
     2010.19302         3.32583         7.93535
     2010.19576        -1.08863         7.89677
     2010.19850         1.43490         7.73171
     2010.20124        -1.60356         7.67491
     2010.20397        -1.77102         7.90105
     2010.20671        -3.72749         8.03610
     2010.20945         2.09605         7.76494
     2010.21219        -2.63641         7.75101
     2010.21493        -2.66588         7.71778
     2010.21766        -3.20434         7.76172
     2010.22040         8.77319         7.81853
     2010.22314        -5.75327         7.71885
     2010.22588        -1.65373         7.79388
     2010.22862        -5.20320         7.91499
     2010.23135         1.18534         7.73922
     2010.23409        -3.99512         7.78959
     2010.23957       -12.41205         8.36298
     2010.24230       -10.38852         8.21937
     2010.24504         0.69602         7.91391
     2010.24778         3.09956         7.82710
     2010.25052        -7.16591         8.23652
     2010.25326         3.66663         7.85390
     2010.25599         3.65717         7.93749
     2010.25873         5.91270         7.78745
     2010.26147        -0.07876         7.91391
     2010.26421         4.78877         8.06825
     2010.26695         5.55931         8.01895
     2010.26968         2.51785         8.06825
     2010.27242         6.90038         8.08325
     2010.27516        -3.57108         7.96107
     2010.27790        10.24046         8.09076
     2010.28063         6.08799         7.96214
     2010.28337        -2.39647         8.11434
     2010.28611         0.59306         8.12934
     2010.28885         1.44860         7.86461
     2010.29159         1.88814         7.92785
     2010.29432        -4.16133         8.03502
     2010.29706        -6.77979         7.88926
     2010.29980        20.10474         8.21508
     2010.30254         0.55528         8.10147
     2010.30528         1.74082         8.11005
     2010.31075         0.43789         7.71778
     2010.31349        -5.67857         7.79924
     2010.31623         4.49796         7.80138
     2010.31896        -2.93350         8.15292
     2011.21972       -11.78209         8.01680
     2011.22246        -9.83555         7.87426
     2011.22519        -6.09001         7.94607
     2011.22793        -3.58848         7.95250
     2011.23067        -7.50494         7.75851
     2011.23341       -12.96741         7.92356
     2011.23614        -8.58787         7.85497
     2011.23888       -11.18733         7.90213
     2011.24162        -4.46080         7.92035
     2011.24436        -7.26026         7.74458
     2011.24710        -7.15772         7.74672
     2011.24983       -11.26819         8.07468
     2011.25257        -6.95065         7.88819
     2011.25531        -6.76012         7.86890
     2011.25805       -13.92158         8.06182
     2011.26079        -7.90404         7.94928
     2011.26352       -13.51551         7.80888
     2011.26626        -7.34697         7.68777
     2011.26900         0.03657         7.83353
     2011.27174        -8.73690         7.84639
     2011.27447         0.72564         8.03610
     2011.27721       -10.84283         7.94178
     2011.27995        -9.55729         7.83675
     2011.28269        -2.22375         7.75315
     2011.28543       -13.19322         7.71993
     2011.28816       -13.53568         7.69420
     2011.29090       -13.59614         7.84211
     2011.29364        -9.83761         7.88605
     2011.29638       -15.48807         7.76708
     2011.29911        -4.13254         7.76387
     2011.30185       -26.58500         8.41550
     2011.30459        -8.80746         7.77459
     2011.30733       -10.76093         7.72421
     2011.31007        -8.74239         7.75101
     2011.31280         5.44014         7.84211
     2011.31554        -8.06832         7.64169
     2011.31828        -5.65378         7.77994
     2011.32102        -1.56825         8.00394
     2011.32376        -9.47471         7.84103
     2011.32649       -12.88117         7.71457
     2011.32923       -12.00164         7.72850
     2011.33197        -9.67810         7.76815
     2011.33471       -15.19957         7.86783
     2011.33744       -10.45003         7.89998
     2011.34018       -12.14749         7.89677
     2011.34292        -5.32896         7.96000
     2011.34566         7.65358         7.94392
     2011.34840        -9.22288         8.02752
     2011.35113        -9.51635         8.01359
     2011.35387       -13.37281         7.97822
     2011.35661       -13.78528         7.68884
     2011.35935       -13.19474         7.76387
     2011.36209       -17.82520         7.67705
     2011.36482        -5.25467         7.92035
     2011.36756        -5.50513         8.02967
     2011.37030       -12.19059         7.83996
     2011.37304       -16.59106         7.88176
     2011.37577       -11.89852         7.78637
     2011.37851        -8.80599         7.87747
     2011.38125       -14.29245         7.88498
     2011.38399       -11.03091         8.11648
     2011.38673        -4.57738         8.07575
     2012.54757         3.60998         7.65348
     2012.55031        -7.19849         7.81424
     2012.55305         0.69005         7.73600
     2012.55579         5.45759         7.95679
     2012.55853         6.20412         8.33405
     2012.56126         2.62966         7.93857
     2012.56400        -0.39580         7.67170
     2012.56674         8.45773         7.78209
     2012.56948         1.69827         7.58274
     2012.57222         3.31080         7.58060
     2012.57495         2.80134         7.74672
     2012.57769         1.89888         7.76923
     2012.58043         5.18741         7.86997
     2012.58317         0.88995         7.83782
     2012.58590         0.92949         7.77887
     2012.58864         5.17302         7.68777
     2012.59138         0.40856         7.73815
     2012.59412         6.65309         7.94178
     2012.59686         4.46063         7.74779
     2012.59959         0.52317         7.71242
     2012.60233        -6.14330         7.91713
     2012.60507        -1.53476         7.68670
     2012.60781         6.88578         7.76280
     2012.61055        10.60031         7.70171
     2012.61328         4.30085         7.74565
     2012.61602         4.18838         7.56666
     2012.61876         8.55192         7.66098
     2012.62150        -0.43954         7.74565
     2012.62423         0.65799         7.81317
     2012.62697        -3.07347         7.91070
     2012.62971         5.93407         8.05860
     2012.63245         5.30160         7.72850
     2012.63519         7.51014         7.75637
     2012.63792         6.37767         7.71028
     2012.64066         4.87221         7.84425
     2012.64340        11.30675         7.72314
     2012.64614         2.89028         7.70706
     2012.64888         3.66682         7.63740
     2012.65161       -10.64265         7.73493
     2012.65435         0.44389         7.65776
     2012.65709         6.76543         7.90748
     2012.65983        11.90596         7.81853
     2012.66256         9.56350         7.63097
     2012.66530         1.90504         7.66205
     2012.66804         7.56457         7.55702
     2012.67078        10.11911         7.58274
     2012.67352         9.40064         7.72850
     2012.67625         5.33618         7.70599
     2012.67899         5.56172         7.77673
     2012.68173        13.41325         8.04146
     2012.68447         3.47679         7.78959
     2012.68721         0.11433         7.72957
     2012.68994        12.58886         7.92892
     2012.69268        17.88340         7.97393
     2012.69542        10.74993         7.84854
     2012.69816         5.75347         7.87212
     2012.70089        -1.98799         7.88069
     2012.70363         0.17054         7.79495
     2012.70637        -6.60492         7.82067
     2012.70911        -2.37738         7.68241
     2012.71185         6.55715         7.62454
     2012.71732         5.88422         7.74029
     2012.72006         5.28776         7.71028
     2012.72280        10.37030         7.68563
     2012.72554         7.81283         7.64276
     2012.72827        14.22237         7.76708
     2012.73101         3.11391         7.92999
     2012.73375        -0.17756         7.76923
     2012.73649         3.46098         7.69313
     2012.73922         7.06451         7.62347
     2012.74196         6.24905         7.71349
     2012.74470         8.15659         7.62883
     2012.74744         5.61812         7.62883
     2012.75018         0.22766         7.68027
     2012.75291         7.03019         7.57952
     2012.75565         3.83873         7.62454
     2012.75839         2.94227         7.61704
     2012.76113         2.68880         7.56773
     2012.76387         1.55634         7.67170
     2012.76660         7.87488         7.79709
     2012.76934         4.59441         7.79602
     2012.77208         3.01795         7.72421
     2012.77482         6.09848         7.75101
     2012.77755        -0.14198         7.80031
     2012.78029         3.48156         7.80352
     2012.78303         4.89209         7.86676
     2012.78577        -1.09637         7.75744
     2012.78851        11.64817         7.78637
     2012.79124         3.15170         7.97929
     2012.79398         2.07424         7.75637
     2012.79672         3.15277         7.60096
     2012.79946         3.34631         7.70921
     2012.80220         9.58085         7.81424
     2012.80493        16.30138         7.86783
     2012.80767        -3.28708         7.89677
     2012.81041       -13.71354         7.83246
     2012.81315         2.71599         7.81317
     2012.81588        -3.56747         7.80138
     2014.14374        -0.37441         7.84318
     2014.14648        -1.60587         7.92785
     2014.14922        -2.55833         7.79924
     2014.15196         0.18020         7.92892
     2014.15469        -3.96326         7.89891
     2014.15743        -3.45873         7.94500
     2014.16017         2.20581         8.51518
     2015.82204        13.22229         7.77887
     2015.82478         3.93983         7.78209
     2015.82752        11.70337         7.73600
     2015.83026        14.59090         7.78959
     2015.83300        18.76944         7.94821
     2015.83573        28.83297         8.63628
     2015.83847        21.04451         8.94602
     2015.84121        11.67505         8.05539
     2015.84395         9.36858         7.97286
     2015.84669         2.75412         7.86783
     2015.84942         9.56066         7.93749
     2015.85216        18.99319         8.14970
     2015.85490         9.58873         8.11005
     2015.85764         1.26126         7.94285
     2015.86037         5.10480         7.92463
     2015.86311        10.37434         8.00180
     2015.86585        14.38987         7.92570
     2015.86859        13.36141         7.95893
     2015.87133         3.44795         7.96857
     2015.87954        17.50155         8.08433
     2015.88228        17.93509         7.97393
     2015.88502         7.99263         8.07254
     2015.89323        15.57524         7.94500
     2015.89597        -1.59223         8.37585
     2015.90966         8.00545         7.91284
     2015.92061        -0.81140         8.18722
     2015.93977        -3.17265         8.44444
     2015.96167         8.83464         8.08968
     2015.97810         6.92386         7.86890
     2016.04381         7.31073         7.86140
     2016.05750         9.09141         7.91499
     2016.59686         0.79104         7.60739
     2016.59959         1.57558         7.71028
     2016.60233         1.34112         7.69635
     2016.60507        -4.57935         7.74029
     2016.60781         3.24119         7.82067
     2016.61055        -4.15028         7.63847
     2016.61328        -5.61074         7.68349
     2016.61602        -5.14720         7.65991
     2016.61876         2.80733         7.63740
     2016.62150         0.85487         7.84318
     2016.62423        -1.57160         7.89784
     2016.62971        -3.66652         7.93857
     2016.63245        -3.44199         7.70278
     2016.63519         3.75055         7.56452
     2016.63792        -1.76591         7.73600
     2016.64066         1.90362         7.77030
     2016.64340         0.80316         7.68241
     2016.64614         4.06569         7.62347
     2016.64888        -0.26077         7.60953
     2016.65161         5.01177         7.70278
     2016.65435         0.72330         7.64061
     2016.65709        -8.17816         7.67598
     2016.65983        -0.38062         7.86247
     2016.66256        -5.14909         7.75958
     2016.66530         5.39245         7.79602
     2016.66804        11.69898         7.59239
     2016.67078        -1.45748         7.73707
     2016.67352         2.00506         7.65348
     2016.67625         1.94859         7.80031
     2016.67899         3.32713         7.57095
     2016.68173         6.17867         7.53558
     2016.68447         9.46420         7.95679
     2016.68721         3.81874         8.16471
     2016.68994         4.04927         7.79816
     2016.69268         0.20081         7.59024
     2016.69542         2.12035         7.56988
     2016.69816         4.99988         7.69742
     2016.70089         5.25542         7.66848
     2016.70363         7.74596         7.87747
     2019.43053         3.06303         7.92356
     2019.43327        -6.11544         7.74350
     2019.43601       -10.00390         7.78745
     2019.43875       -16.97536         7.97715
     2019.44148        -9.68983         7.78852
     2019.44422       -10.34529         7.91820
     2019.44696       -12.93376         8.01359
     2019.44970       -11.18322         8.01037
     2019.45243       -14.98568         7.94500
     2019.45517       -14.94415         7.86676
     2019.45791       -15.22761         7.90213
     2019.46065       -12.99407         7.92249
     2019.46339        -7.71254         8.15828
     2019.46612        -3.49000         8.19472
     2019.46886        -1.61947         7.91927
     2019.47160        -8.59893         7.82067
     2019.47434        -8.56239         7.82925
     2019.47708        -3.49086         8.03824
     2019.47981        -5.29132         8.11112
     2019.48255       -12.07779         7.93321
     2019.48529        -2.69025         8.12827
     2019.48803       -12.49271         8.00930
     2019.49076       -12.64418         7.82925
     2019.49350        -5.13764         7.88926
     2019.49624       -11.38010         7.84103
     2019.49898       -11.27257         7.80781
     2019.50172        -8.31303         7.80031
     2019.50445       -13.17950         7.88391
