# ================= DQRFIT RESULTS ================
# INPUT FILE: series/UKIA.rad
# OUTPUT: LDETRENDED
# FILTER FUNCTION: f(t)
# f(t)=+line(t)+annual(t)
# line(t)=+P 1+P 2*t
# annual(t)=+P 3*sin(2*pi*t+P 4)
# heav(t)=(t<0?0:1)
# TOTAL OBSERVATIONS MTOT= 3838
# INITIAL TIME INTERVAL= 2022.7488 - 2011.8718 = 10.8770
# TOTAL OBSERVATIONS AFTER PREFILTER M= 3826
# TIME-SPAN= 2022.7488 - 2011.8718 = 10.8770
# OBSERVATIONS: USED M=  3826 REJECTED MTOT-M=    12 %USED=   99.6873
# N=  4 PARAMETERS
# MAXSIG= 175.00000
# MAXRES=  25.03259
# SCALE FACTOR FOR LENGTHS: SCL=  10.00000
# SCALE FACTOR FOR SIGMAS: SCLSIG=   1.00000
# CHI^2=   3103.307 DOF=  3822 CHI^2/DOF=   0.81196
# RMS=      5.088 SDEV=      5.088 MEAN=   -0.02601
#  P #       PARAMETER +-    SIGMA %error PARAMETER NAME
# P 1 =      2047.08625 +-   53.023   2.59 YZERO                              
# P 2 =        -1.01530 +-    0.026   2.59 SLOPE                              
# P 3 =         4.89086 +-    0.115   2.35 ANNUAL AMPLITUDE                   
# P 4 =        -3.08354 +-    0.033   1.08 ANNUAL PHASE                       
#       T            LDETRENDED       SIG_OBS
     2011.87177         9.68769         6.19588
     2011.87405         0.84501         5.05871
     2011.87953         3.52357         5.09295
     2011.88227         0.66935         5.19477
     2011.88501         2.03213         5.00464
     2011.88774        -4.51409         5.04429
     2011.89048         1.14969         5.08394
     2011.89322        -1.53753         5.16143
     2011.89869         3.94303         5.07312
     2011.90143        -6.88719         5.02537
     2011.90417        -0.74442         5.11097
     2011.90691        -2.64364         5.12358
     2011.90965         0.76814         5.09024
     2011.91238         1.49392         5.46960
     2011.91786         6.87548         5.25514
     2011.92060        -4.39674         5.06952
     2011.92334        -5.32096         5.14972
     2011.92607        -6.48518         5.18216
     2011.92881        -2.15740         5.15152
     2011.93138        -1.59779         5.62279
     2011.93794        -0.16413         8.66576
     2011.93976         0.85072         5.16684
     2011.94250         4.59450         5.09565
     2011.94524         3.62928         5.13169
     2011.94798         6.46906         5.11097
     2011.95071         5.23084         5.02627
     2011.95345         5.12162         5.10196
     2011.95619         1.50840         5.15422
     2011.95893        -3.75482         4.98121
     2011.96167         2.51896         5.28127
     2011.96440         1.43874         5.04339
     2011.96714        -2.22848         5.09205
     2011.96988        10.68130         4.96860
     2011.97262        -2.01992         4.94607
     2011.97535        -2.98614         4.98301
     2011.97792        -5.31454         5.40202
     2012.00861         1.90162         5.95709
     2012.01368         7.82977         4.91183
     2012.01642        -0.92645         4.91814
     2012.01916         2.69533         4.94877
     2012.02190         0.97911         4.93796
     2012.02464         5.41989         4.95598
     2012.02737         1.97767         5.01726
     2012.03285        -2.32677         4.87849
     2012.03559        -0.17299         4.93165
     2012.03833         1.44579         4.95418
     2012.04106         5.89657         4.94787
     2012.04380         2.14735         5.47050
     2012.04654         4.48413         4.93976
     2012.05201         8.95069         4.96229
     2012.05475        14.52047         4.98842
     2012.05749         2.72425         4.95688
     2012.06023         5.52003         5.52547
     2012.06297         1.47781         4.93616
     2012.06570        -8.35041         5.06321
     2012.07118        -2.56285         4.91093
     2012.07392        -4.41107         4.89110
     2012.07666         1.52371         4.90372
     2012.07939         3.60549         4.93886
     2012.08213         2.57127         4.92985
     2012.08487         0.15505         4.96229
     2012.09034        -3.62139         4.90102
     2012.09308        -0.29661         4.86858
     2012.09582        -1.68683         4.90552
     2012.09856        -0.54205         4.94247
     2012.10130        -2.31427         5.03528
     2012.10403        -2.99349         4.95869
     2012.10951        -1.09593         4.93706
     2012.11225        -2.73015         4.93616
     2012.11498        -0.62237         4.94517
     2012.11772         2.33341         5.01275
     2012.12046         6.07218         4.94967
     2012.12320         0.12996         4.93616
     2012.12856        -4.78259         5.10106
     2012.13044        -0.93568         9.12802
     2012.13415         3.58408         5.01275
     2012.13689        -2.84214         5.00374
     2012.13963         1.50464         5.23532
     2012.14117         2.24021        14.12545
     2012.14784        -6.65402         4.89831
     2012.15058        -5.21524         4.94787
     2012.15331        -4.85646         4.93706
     2012.15605        -3.68968         5.04339
     2012.15879        -3.37490         4.95869
     2012.16153         2.83188         4.88299
     2012.16700        -6.35056         4.98211
     2012.16974       -12.50378         4.89381
     2012.17248        -3.74100         4.88119
     2012.17522        -1.15322         4.92264
     2012.17796        -2.72144         4.93075
     2012.18069        -3.96266         4.99022
     2012.18617        -5.29610         4.92715
     2012.18891        -2.22632         4.90462
     2012.19159         0.54340         5.09926
     2012.19336         4.03420         9.52179
     2012.19712         4.40002         5.02176
     2012.19986        -3.83720         4.95328
     2012.20533        -1.84964         4.97581
     2012.20807         0.04914         4.94337
     2012.21081         1.01692         4.89561
     2012.21355         1.27470         4.89291
     2012.21629        -2.88952         4.86768
     2012.21902        -5.16374         4.87669
     2012.22450       -10.21618         4.97581
     2012.22724        -5.68840         4.93346
     2012.22997        -1.13163         4.90642
     2012.23271         3.53715         4.97941
     2012.23545        -1.43907         5.14701
     2012.23819         2.61771         4.98572
     2012.24366        -6.40473         5.00644
     2012.24640        -0.78595         5.00284
     2012.24914        -2.87117         5.06591
     2012.25188        -3.96439         4.93165
     2012.25462        -8.79261         4.93886
     2012.25735        -5.27583         4.94066
     2012.26283        -6.65227         4.92354
     2012.26557        -9.74749         4.93616
     2012.26830        -5.40671         5.19387
     2012.27104        -4.87693         5.30290
     2012.27378        -2.30215         5.11728
     2012.27652        -2.19537         5.11998
     2012.28137       -10.16745         8.29902
     2012.28473         1.29497         4.90732
     2012.28747        -4.60125         4.90462
     2012.29021        -6.79047         4.91183
     2012.29295        -4.73669         5.12268
     2012.29568       -10.71491         4.94697
     2012.30116        -0.31335         4.95508
     2012.30390        -6.36357         4.96860
     2012.30663       -10.21979         4.95598
     2012.30937        -1.94301         5.20739
     2012.31211         1.11177         5.21910
     2012.31485        -1.21745         5.07222
     2012.32032        -2.80289         4.96589
     2012.32306        -7.86311         4.88750
     2012.32580        -9.42133         4.92084
     2012.32854        -1.17255         5.00644
     2012.33128         0.28423         5.10106
     2012.33401        -4.60099         5.02086
     2012.33949       -11.39744         4.94066
     2012.34217       -10.30271         5.34615
     2012.34496       -14.86988         5.00554
     2012.34770        -8.01610         5.00104
     2012.35044       -10.90132         4.91994
     2012.35318        -9.59954         5.35697
     2012.35746       -20.93719        14.71026
     2012.36139        -7.12020         4.93075
     2012.36413       -12.35342         4.92895
     2012.36687       -13.06264         4.93436
     2012.36961        -9.74386         4.98031
     2012.37234        -3.77308         4.91724
     2012.37782        -4.20752         4.99112
     2012.38056        -8.79574         5.01636
     2012.38329        -8.06196         4.97310
     2012.38603        -6.07718         5.01185
     2012.38877        -6.88440         5.08123
     2012.39151        -1.17662         4.96680
     2012.39698        -4.24606         4.94877
     2012.39972        -6.23328         4.86768
     2012.40246         0.01650         5.08574
     2012.40520        -9.03372         4.95238
     2012.40794        -4.97694         4.97581
     2012.41067        -8.81516         4.85236
     2012.41615        -8.01260         4.99653
     2012.41889         3.99418         5.83364
     2012.42162        -2.96604         5.17765
     2012.42436         1.71674         4.81001
     2012.42710        -5.12348         4.86227
     2012.42984        -5.03770         4.85596
     2012.43531        -7.78614         4.98031
     2012.43805        -0.68936         4.80730
     2012.44079        -9.03958         4.81271
     2012.44353       -13.01581         4.88119
     2012.44626        -5.02203         4.91453
     2012.44900        -6.75825         4.90282
     2012.45448        -6.68969         4.89020
     2012.45722        -7.63091         4.93346
     2012.45995         0.18387         5.16413
     2012.46269        -2.44335         5.42184
     2012.46543        -3.83357         4.95418
     2012.46817        -0.87279         4.94517
     2012.47364        -3.05823         4.91003
     2012.47638        -1.43745         5.03438
     2012.47912         0.18533         4.94427
     2012.48186        -0.37089         4.95148
     2012.48459         0.81389         5.00554
     2012.48625        -4.38443        12.57378
     2012.49384         2.15527         9.59478
     2012.49555        -1.75799         4.88119
     2012.49828        -3.90521         4.91633
     2012.50102         6.19657         4.98121
     2012.50376         4.30035         4.95238
     2012.50650        -3.70087         4.92715
     2012.51197        -1.53931         5.01636
     2012.51471         3.99847         4.87488
     2012.51716         1.50496         5.50384
     2012.52019        -0.67897         5.28308
     2012.52292         1.54781         5.03978
     2012.52566        -1.47741         4.90913
     2012.53114         3.51915         4.83794
     2012.53336        -0.98459         6.66625
     2012.53667       -10.61224         5.78048
     2012.53935         5.39849         5.29119
     2012.54209        14.52127         5.15242
     2012.54483         0.51905         4.89561
     2012.55030         1.60261         5.14701
     2012.55304         1.68538         4.93075
     2012.55578        -2.18784         4.85326
     2012.55852        -0.97806         4.89291
     2012.56125         1.43572         4.82082
     2012.56399        -0.91750         4.84335
     2012.56947        -2.85394         4.97220
     2012.57221         1.03184         4.88119
     2012.57494        -0.62238         4.84515
     2012.57768         1.34740         4.87488
     2012.58042         3.47618         4.94697
     2012.58316        -1.55904         4.86497
     2012.58863         5.69952         5.15242
     2012.59137         1.22930         4.83343
     2012.59411         1.52008         4.82803
     2012.59685         5.46786         5.11007
     2012.59958         2.33864         4.87218
     2012.60232        -2.62558         5.25244
     2012.60780         0.99698         4.88750
     2012.61054         3.60076         4.82442
     2012.61327         3.40954         4.84875
     2012.61601         2.50032         4.84154
     2012.61875         6.52910         4.82442
     2012.62149         5.17588         4.85236
     2012.62696         6.70944         4.89020
     2012.62970         2.56022         4.81721
     2012.63244         3.84800         4.94156
     2012.63518         7.58278         4.87579
     2012.63791         6.72556         4.95688
     2012.64065        14.65534         6.84196
     2012.64613         5.74990         4.87128
     2012.64887         8.22368         4.80550
     2012.65160        12.14446         4.86407
     2012.65423         9.65112         8.62431
     2012.65708        14.41502         7.56373
     2012.65982         9.82679         5.70839
     2012.66529         9.07835         4.83343
     2012.66803         8.61713         4.91543
     2012.67077         9.99791         4.93346
     2012.67351         4.61269         5.27857
     2012.67624         6.59047         4.92174
     2012.67898        10.32625         4.81091
     2012.68446         7.13781         4.85506
     2012.68720         8.92559         4.82442
     2012.68953         7.30197         7.19338
     2012.69267        13.07915         6.80141
     2012.69541         7.04393         4.90913
     2012.69815         6.20371         4.90192
     2012.70362         2.13527         4.95598
     2012.70636         3.97305         4.89110
     2012.70910         5.18283         4.83974
     2012.71184         8.18261         5.09475
     2012.71457         9.82139         4.78568
     2012.71731         9.55717         4.79108
     2012.72279         9.96773         4.80100
     2012.72553        11.17751         4.90462
     2012.72826         9.53629         4.89200
     2012.73100         4.65707         4.92264
     2012.73374         8.72385         5.17675
     2012.73648         8.36963         4.91543
     2012.74195         9.34719         4.91003
     2012.74469         3.35997         4.86227
     2012.74669        29.91999         7.15734
     2012.75108         0.62645         8.94149
     2012.75290         9.76431         4.95418
     2012.75564         8.67609         4.79469
     2012.76112         5.40665         4.78207
     2012.76386         7.14043         4.86948
     2012.76659         7.23220         4.91814
     2012.76933         9.57998         4.90552
     2012.77207         8.51376         4.99383
     2012.77481         6.10154         4.86948
     2012.78028         9.81510         4.98752
     2012.78302         8.03288         4.92535
     2012.78576        -0.25634         4.90462
     2012.78850        13.44944         4.93616
     2012.79123         5.87222         5.11367
     2012.79397         6.29400         4.95508
     2012.79671         7.84078         4.95598
     2012.79945        10.37356         5.00734
     2012.80219         9.43234         5.03257
     2012.80492         7.46112         4.96770
     2012.80766         4.59390         4.92174
     2012.81040         3.93668         5.04339
     2012.81314         0.31046         4.97220
     2012.81587        -1.59576         4.92264
     2012.81861        -4.61298         5.06772
     2012.82135        -3.56620         4.98572
     2012.82409         1.04158         5.06952
     2012.82683         5.75836         5.04159
     2012.82956        -2.73686         4.91994
     2012.83230         1.55992         4.92805
     2012.83504        -6.45730         5.36958
     2012.83778         1.06848         4.95778
     2012.84052         6.14426         5.04068
     2012.84325         3.14304         6.09766
     2012.84599         0.49982         5.15602
     2012.84873        -1.42740         4.98482
     2012.85147         6.98038         5.01455
     2012.85420        -0.21284         5.07132
     2012.85694        -1.24806         5.08754
     2012.85968        -1.41428         4.95869
     2012.86242        -6.22850         4.96049
     2012.86516        -6.44272         4.96319
     2012.86789       -13.43394         5.14701
     2012.87063        -6.22416         5.05781
     2012.87337        -1.39538         5.06591
     2012.87611         1.33839         4.93526
     2012.87885         2.28417         5.03438
     2012.88158        -1.40505         4.96139
     2012.88432         2.90373         5.01726
     2012.88706        -8.62849         5.13440
     2012.88980         2.63729         5.18576
     2012.89253        -6.01793         4.97581
     2012.89527        -4.03615         4.93976
     2012.89801        -1.16537         5.21189
     2012.90075        -3.33759         5.04519
     2012.90349        -3.69581         5.02987
     2012.90622        -2.68303         4.90642
     2012.90896        -2.39225         4.93976
     2012.91170        -1.20047         4.91183
     2012.91444        -2.69369         5.04159
     2012.91718        -0.57591         5.04699
     2012.91991         4.12487         5.02446
     2012.92265         2.37565         4.94247
     2012.92539        -4.57357         4.90372
     2012.92813        -2.24279         4.90372
     2012.93086        -2.52801         5.11908
     2012.93360         3.46977         5.07943
     2012.93634        -2.58745         4.91453
     2012.93908        -4.90067         5.17675
     2012.94182        -8.63189         4.86497
     2012.94455         4.42589         4.91904
     2012.94729         5.06067         5.07042
     2012.95003         2.74945         5.03257
     2012.95277         9.00123         4.90913
     2012.95551         4.77401         4.86497
     2012.95824         6.69079         4.88299
     2012.96098         0.27957         5.26596
     2012.96372         6.57535         5.07673
     2012.96646         4.35713         4.93436
     2012.96919        -1.67009         4.95959
     2012.97193        -2.69931         5.02807
     2012.97467         2.33947         4.91904
     2012.97741         1.35925         4.92985
     2012.98015         4.54003         4.90102
     2012.98288         2.95180         5.07763
     2012.98562        -3.75942         4.89831
     2012.98836        -0.86064         4.85776
     2012.99110        -1.87486         4.93165
     2012.99384        -1.24008         4.95508
     2012.99657        -1.36330         4.94607
     2012.99931        -5.19052         4.90282
     2013.00205        -4.49274         4.93075
     2013.00479        -5.46296         5.03708
     2013.00752        -7.36518         4.94337
     2013.01026        -9.13940         4.95058
     2013.01300        -4.41062         4.89741
     2013.01574        -4.58984         4.94156
     2013.01848        -8.58706         4.96770
     2013.02121         0.23972         4.97941
     2013.02395        -7.25850         5.03708
     2013.02669         1.51428         5.05690
     2013.02943         3.04206         4.91904
     2013.03216        -1.12316         4.92535
     2013.03490        -7.00538         4.99473
     2013.03764        -5.38460         5.00014
     2013.04038        -9.35282         4.97040
     2013.04312       -10.13604         5.03798
     2013.04585        -6.99326         5.06952
     2013.04859        -8.74148         5.10827
     2013.05133        -8.28170         5.02446
     2013.05407        -6.97592         5.01455
     2013.05681        -3.97914         4.99112
     2013.05954        -3.86636         4.99653
     2013.06228        -5.69558         5.13440
     2013.06502        -3.29680         5.11818
     2013.06776        -2.62002         5.03798
     2013.07049        -4.40824         5.06321
     2013.07323        -6.13746         4.95959
     2013.07597        -6.95868         4.99022
     2013.07871        -4.32690         4.94967
     2013.08145         0.31988         4.98842
     2013.08418        -8.64834         5.17495
     2013.08692        -9.75156         4.96680
     2013.08966       -10.09778         4.97310
     2013.09240        -5.52001         4.97130
     2013.09514        -2.14223         5.00374
     2013.09787        -2.30845         5.24523
     2013.10061        -2.22767         5.33714
     2013.10335        -0.31189         4.98842
     2013.10609        -4.29411         4.94967
     2013.10882        -2.21233         4.96139
     2013.11156       -11.89555         5.09205
     2013.11430        -7.29777         5.01005
     2013.11704       -13.03599         5.04429
     2013.11978        -3.91021         5.11367
     2013.12251        -9.74243         5.00104
     2013.12525       -15.03565         5.00554
     2013.12799        -7.20387         5.01185
     2013.13073        -4.86909         4.96499
     2013.13347        -3.24331         4.96950
     2013.13620        -3.05853         4.96860
     2013.13894        -2.91075         4.95959
     2013.14168        -0.99897         5.00104
     2013.14442        -4.37319         5.12809
     2013.14715         3.10059         5.14791
     2013.14989        -4.62563         4.95508
     2013.15263        -9.60085         5.04429
     2013.15537       -11.96907         4.99293
     2013.15811       -10.33429         5.00554
     2013.16084       -10.63351         4.96319
     2013.16358        -8.81073         5.08754
     2013.16632        -9.35095         5.00554
     2013.16906        -2.55917         5.02446
     2013.17180        -6.26339         4.99112
     2013.17453        -4.18061         4.97851
     2013.17727        -1.83083         5.22361
     2013.18001        -1.01705         5.12449
     2013.18275        -3.80827         4.98482
     2013.18548        -9.27249         4.97941
     2013.18822       -11.57671         5.01275
     2013.19096        -7.30193         4.98301
     2013.19370        -6.68415         5.00374
     2013.19644        -9.79737         5.04519
     2013.19917        -4.82360         4.98121
     2013.20191        -4.25782         5.01906
     2013.20465        -2.39104         5.00374
     2013.20739         0.58174         5.02807
     2013.21013        -1.44248         4.98752
     2013.21286        -4.33170         4.94247
     2013.21560        -5.18792         5.01816
     2013.21834        -6.65314         4.95058
     2013.22108        -7.83636         4.92084
     2013.22381        -7.81158         4.96139
     2013.22655        -7.54180         5.00194
     2013.22929        -6.27302         4.92715
     2013.23203        -7.47424         4.97310
     2013.23477        -3.83046         4.97400
     2013.23750       -10.83768         5.09024
     2013.24024        -7.44190         5.10827
     2013.24298        -6.40312         5.05781
     2013.24572        -1.26834         5.13710
     2013.24846         0.15244         5.11998
     2013.25119        -5.24778         5.08484
     2013.25393        -7.56600         5.08394
     2013.25667        -5.35022         5.25154
     2013.25941         1.44156         5.21820
     2013.26214         0.70334         5.30921
     2013.26488        -2.11288         5.24343
     2013.26762        -2.47210         5.09655
     2013.27036        -7.23632         5.14161
     2013.27310        -9.63654         5.28758
     2013.27583        -5.93876         5.15783
     2013.27857        -5.80698         5.13260
     2013.28131         7.75680         5.17405
     2013.28405        -0.80942         5.30290
     2013.28679        -2.04264         5.17495
     2013.28952        -4.46786         4.95058
     2013.29226       -11.96808         5.10466
     2013.29500        -5.70130         5.13169
     2013.29774        -9.48052         5.10376
     2013.30047        -9.36374         5.07943
     2013.30321       -13.23496         5.10016
     2013.30595       -11.43419         5.12449
     2013.30869        -8.26141         5.06321
     2013.31143       -10.06663         5.02537
     2013.31416        -6.65285         5.04339
     2013.31690        -4.31207         5.09926
     2013.31964        -4.72829         5.00104
     2013.32238        -3.78051         5.13440
     2013.32512         3.58827         5.24073
     2013.32785        -4.48995         5.05240
     2013.33059       -11.77217         5.40562
     2013.33333       -15.20239         5.52187
     2013.33606       -10.72261         5.08123
     2013.33880         1.88817         5.12358
     2013.34154        -2.27805         5.06231
     2013.34428        -8.50927         5.24703
     2013.34702        -6.03149         5.12719
     2013.34976        -8.74771         5.00374
     2013.35249        -6.23493         5.02537
     2013.35523       -10.03415         5.08574
     2013.35797        -6.19837         5.08304
     2013.36071        -8.13959         5.11547
     2013.36344        -6.20881         5.00284
     2013.36618        -5.28903         5.02176
     2013.36892        -0.26525         5.00374
     2013.37166        -7.84747         5.17495
     2013.37440        -4.32569         4.99563
     2013.37713        -5.20892         4.94427
     2013.37987        -4.69213         5.10376
     2013.38261        -9.36235         5.05510
     2013.38535        -9.14157         5.36417
     2013.38809        -3.99079         5.01005
     2013.39082        -5.05201         4.95598
     2013.39356        -6.18523         4.98932
     2013.39630        -7.56645         5.07222
     2013.39904        -6.12467         5.14431
     2013.40177        -4.48489         5.08844
     2013.40451        -3.20311         5.21279
     2013.40725        -4.55133         5.08123
     2013.40999        -3.01855         4.99203
     2013.41273        -3.99777         5.01545
     2013.41546        -9.01500         5.24073
     2013.41820        -8.64222         4.95328
     2013.42094         0.40256         4.98662
     2013.42368        -7.01166         5.03618
     2013.42642        -7.93688         5.08844
     2013.42915        -0.06510         5.26145
     2013.43189        -8.49532         5.12088
     2013.43463       -10.07654         5.34345
     2013.43737         2.30024         5.31371
     2013.44010        -4.05698         5.40202
     2013.44284         1.26080         4.99563
     2013.44558        -4.55642         5.03978
     2013.44832        -6.63664         4.97581
     2013.45106        -5.76886         4.99203
     2013.45379        -6.41708         4.99833
     2013.45653        -1.43330         5.04609
     2013.45927        -0.49652         5.01636
     2013.46201        -2.01074         5.09205
     2013.46475        -4.75196         4.96229
     2013.46748        -4.54218         4.95959
     2013.47022        -5.44140         5.09205
     2013.47296        -6.28262         4.93255
     2013.47570        -3.36684         4.91543
     2013.47843        -2.34407         4.93255
     2013.48117        -2.79328         5.06952
     2013.48391         0.44450         5.02176
     2013.48665        -4.91872         4.96950
     2013.48939        -6.26694         4.95148
     2013.49212        -7.12416         5.12539
     2013.49486        -5.60538         5.04609
     2013.49759        -1.93961         4.99473
     2013.50034        -3.50682         5.04609
     2013.50308         3.28396         4.96049
     2013.50581        -5.93826         4.91814
     2013.50855        -4.67948         4.94697
     2013.51129        -0.04170         4.90192
     2013.51403        -2.59792         5.02176
     2013.51676        -4.02115         5.02897
     2013.51950        -2.18136         5.02897
     2013.52224        -0.88659         4.97941
     2013.52498         0.81019         5.15422
     2013.52772        -0.75003         4.94517
     2013.53045        -5.00725         4.93616
     2013.53319        -0.34747         5.08394
     2013.53593        -3.40069         5.00104
     2013.53867        -3.85291         5.01545
     2013.54141        -3.70813         5.08574
     2013.54414        -4.85235         4.93346
     2013.54688        -1.35557         4.94877
     2013.54961         0.23821         4.95778
     2013.55236        -0.40801         4.94337
     2013.55509         1.26877         4.91453
     2013.55783         4.74355         5.44617
     2013.56051         0.19227         5.18306
     2013.56331        -1.28989         5.09926
     2013.56605         0.50189         5.08033
     2013.56878        -0.10733         5.04970
     2013.57152         4.37245         5.03528
     2013.57437         3.88335         5.21189
     2013.57700         2.61601         5.06952
     2013.57974         5.17379         4.94517
     2013.58247         2.12957         5.12358
     2013.58521         2.49035         4.95238
     2013.58795        -0.14387         4.95508
     2013.59069         2.47991         4.91543
     2013.59342         6.39869         4.92805
     2013.59616         5.85547         4.99923
     2013.59890        -2.00275         5.00734
     2013.60164         1.23403         4.95148
     2013.60438         8.88081         5.03798
     2013.60711        -0.96941         5.05961
     2013.60985        -5.50963         5.02266
     2013.61259         4.56615         4.92805
     2013.61533         5.92393         5.11908
     2013.61807         1.71671         5.04339
     2013.62080         4.84349         4.95688
     2013.62257         4.07328         8.81985
     2013.63529        -2.81880         8.11069
     2013.63723         7.54516         4.90642
     2013.63997         6.05294         5.61468
     2013.64271         6.24072         4.94247
     2013.64544         4.29950         4.89381
     2013.64818        -0.00072         4.98482
     2013.65092         7.92206         4.94427
     2013.65366         2.73384         4.90102
     2013.65639         5.57862         5.07763
     2013.65913         7.68440         5.29029
     2013.66187        -0.33382         4.99653
     2013.66461         3.72796         4.90552
     2013.66735        11.63774         5.01185
     2013.67008         2.77252         5.11998
     2013.67282         7.49930         5.35066
     2013.67556        -0.31892         5.17044
     2013.67830        15.04486         5.33985
     2013.68104        10.64664         4.99473
     2013.68377         5.48542         4.90011
     2013.68651         0.24120         4.92174
     2013.68925         2.30698         4.88119
     2013.69199         6.43576         4.92444
     2013.69472         5.28654         4.92084
     2013.69746         1.98532         4.93436
     2013.70020         4.19610         4.91453
     2013.70294         8.59188         4.95148
     2013.70568         6.27366         5.05781
     2013.70841         5.87544         5.07763
     2013.71115         4.09522         4.94787
     2013.71389         2.96600         4.90913
     2013.71663         2.64578         4.91453
     2013.71937         6.08456         4.94607
     2013.72210        13.39834         4.94517
     2013.72484         7.88412         4.91183
     2013.72758         9.64990         4.92985
     2013.73032         6.49868         4.88209
     2013.73305         8.73846         4.88299
     2013.73579         8.55424         4.90462
     2013.73853         6.04101         4.90822
     2013.74127         6.05279         4.88480
     2013.74401         4.32557         5.07673
     2013.74674         3.30935         5.04249
     2013.74948         8.03813         4.90552
     2013.75222        -1.26809         4.91003
     2013.75496        -1.51231         4.90372
     2013.75770        -5.91153         4.86587
     2013.76043        -3.31375         4.92084
     2013.76317         0.56303         4.93255
     2013.76591         0.17381         4.97581
     2013.76865         3.26559         4.90282
     2013.77138         3.38937         4.91724
     2013.77412         4.65115         4.94247
     2013.77686        -0.47907         4.91093
     2013.77960        -3.64129         4.91814
     2013.78234        -4.01251         4.92715
     2013.78507        -4.37273         4.88299
     2013.78781        -9.99295         4.94967
     2013.79055        -0.55317         4.97581
     2013.79329        -3.64939         4.91814
     2013.79603        -0.83861         4.89020
     2013.79876         0.28717         4.89110
     2013.80150         4.00695         5.02807
     2013.80424         2.97473         5.00194
     2013.80698        -1.56949         4.90372
     2013.80971         2.19629         4.87759
     2013.81245         4.61707         4.87669
     2013.81519        -1.96515         4.89831
     2013.81793        -2.00237         4.92444
     2013.82067        -2.91059         4.93706
     2013.82340         3.38219         4.91183
     2013.82614         1.79997         4.99473
     2013.82888         3.92475         4.92174
     2013.83162         0.10953         5.00104
     2013.83436        -0.61369         5.09926
     2013.83709        -1.75591         5.13620
     2013.83983         2.84187         4.98031
     2013.84257        -3.93235         4.98752
     2013.84531        -5.59358         5.04429
     2013.84804        -1.88580         4.95328
     2013.85078        -3.53002         4.97851
     2013.85352         0.41376         4.85957
     2013.85626        -2.33446         4.87849
     2013.85900        -3.44868         4.85326
     2013.86173        -2.28090         4.93165
     2013.86447        -4.53312         4.98031
     2013.86721        -2.86134         4.87038
     2013.86995        -2.26956         4.80910
     2013.87269         5.37522         4.85957
     2013.87542        14.24900         4.91003
     2013.87816         5.33178         4.93706
     2013.88090         4.37956         4.98031
     2013.88364         8.11134         5.10376
     2013.88637         1.72612         4.86948
     2013.88911        -5.30810         4.88840
     2013.89185       -12.12432         4.85776
     2013.89459        -8.13154         4.94517
     2013.89664         6.08055         6.70319
     2013.90006        -5.96298         4.90642
     2013.90280        -8.20820         4.90642
     2013.90554        -3.71542         4.88750
     2013.90828        -0.28364         4.90552
     2013.91102        -1.57186         4.87038
     2013.91375        -4.62308         4.83073
     2013.91649        -0.47930         4.85506
     2013.91923         2.26448         5.00374
     2013.92197        -1.27674         4.94517
     2013.92470        -1.30796         4.85326
     2013.92744        -0.08518         4.91273
     2013.93018        -0.18340         4.78027
     2013.93292        -2.60262         4.83253
     2013.93566        -3.27884         4.84515
     2013.93839        -1.73706         4.87488
     2013.94113        -5.00428         4.80640
     2013.94387        -2.70650         4.80730
     2013.94661        -3.84372         4.93255
     2013.94935        -3.03394         4.86047
     2013.95208        -4.05716         4.85957
     2013.95482        -3.96239         4.90192
     2013.95756        -2.51961         4.81451
     2013.96030        -2.68883         4.83974
     2013.96303         0.31495         4.84875
     2013.96577         1.28473         4.82623
     2013.96851         1.10351         4.89561
     2013.97125        -5.10871         4.88390
     2013.97399        -4.00893         4.84875
     2013.97672       -10.03315         4.94156
     2013.97946        -3.08537         4.89741
     2013.98220        -5.83959         4.92805
     2013.98494       -10.00081         4.85686
     2013.98767        -9.28503         4.90462
     2013.99041       -10.70225         4.93165
     2013.99315       -12.44847         4.89381
     2013.99589        -7.12369         4.87308
     2013.99863       -11.69691         4.91093
     2014.00416        -7.35929         4.97491
     2014.00684        -5.95357         5.04970
     2014.00958        -5.29279         4.86227
     2014.01232       -10.80101         4.94607
     2014.01505       -10.20123         5.05600
     2014.01779        -8.56545         5.03618
     2014.02053        -9.73567         4.86497
     2014.02327        -2.93089         5.08123
     2014.02600         0.80089         5.11908
     2014.02874        -0.55633         4.95238
     2014.03148         1.38245         4.87128
     2014.03422         1.58523         4.86407
     2014.03696        -9.63899         4.89471
     2014.03969        -4.06721         5.05781
     2014.04243        -3.73743         5.02176
     2014.04517         0.57735         4.98211
     2014.04791        -3.24987         4.81812
     2014.05065        -2.42209         4.87218
     2014.05338        -6.35531         4.83434
     2014.05612        -7.67453         4.82442
     2014.05886        -7.72975         4.86227
     2014.06160        -4.09198         5.00374
     2014.06433        -4.38520         5.00014
     2014.06707        -4.56742         5.09475
     2014.06981         0.81636         4.91273
     2014.07255        -1.94586         4.82623
     2014.07529        -0.63708         4.85866
     2014.07802         1.59070         4.92444
     2014.08076         0.01748         4.91363
     2014.08350        -1.27374         4.83614
     2014.08624        -3.05096         4.94156
     2014.08898        -1.52118         4.99383
     2014.09171        -5.78840         5.09385
     2014.09445        -9.49162         4.94427
     2014.09719        -7.91084         4.98211
     2014.09993         0.89994         4.79739
     2014.10266        -6.50028         4.96319
     2014.10540        -7.04450         4.91273
     2014.10814       -22.29072         4.88840
     2014.11088       -23.27994         5.01816
     2014.11635         4.45962         4.88570
     2014.11909        -1.08260         4.93255
     2014.12183        -3.15282         5.01185
     2014.12457         1.44996         5.01545
     2014.12731         1.22474         4.94247
     2014.13004         1.51252         4.90732
     2014.13278        -0.12270         5.03438
     2014.13552         1.84808         5.11277
     2014.13826         0.91186         4.90372
     2014.14099        -2.87036         4.89831
     2014.14373         2.84042         4.95058
     2014.14647        -0.95580         5.03438
     2014.14921         0.00098         5.03348
     2014.15195        -4.02024         4.98932
     2014.15468         2.96254         5.08844
     2014.15742         3.25732         4.96409
     2014.16016         3.25810         5.14251
     2014.16290         5.42088         5.10016
     2014.16564        -6.62834         5.20558
     2014.16837        -3.36157         5.20198
     2014.17111        -1.25979         5.12268
     2014.17385        -2.19201         5.12178
     2014.17659        -0.67323         5.10286
     2014.17932         3.68955         5.22451
     2014.18206         2.07133         5.07943
     2014.18480         5.06511         5.21369
     2014.18754        -1.67911         4.96950
     2014.19028        -5.17433         4.96409
     2014.19301        -3.05355         5.05961
     2014.19575        -1.22877         4.97310
     2014.19849        -1.12199         4.98392
     2014.20123        -2.42721         4.98121
     2014.20397        -2.21743         5.02446
     2014.20670         0.11935         5.17044
     2014.20944        -0.16187         5.03708
     2014.21218         0.12191         4.99293
     2014.21492        -0.35031         5.12088
     2014.21765        -0.60953         4.99112
     2014.22039        -3.67175         4.98932
     2014.22313        -3.26297         5.07042
     2014.22587        -2.72819         5.01545
     2014.22861         1.44959         5.39391
     2014.23134         5.61937         5.01545
     2014.23408         0.68715         5.03438
     2014.23682        -2.91007         5.08304
     2014.23956        -8.71629         5.15332
     2014.24230        -1.56951         5.02717
     2014.24503        -5.71373         4.98392
     2014.24777         5.09905         5.21369
     2014.25051        -0.12717         4.98392
     2014.25325        -5.80339         5.08394
     2014.25598        -1.27061         5.23622
     2014.25872        -1.68083         4.99653
     2014.26146        -2.24705         5.16594
     2014.26420        -6.77527         4.98842
     2014.26694        -8.86149         5.07312
     2014.26967        -7.44971         5.12629
     2014.27241        -5.78693         5.21910
     2014.27515        -4.25915         5.11547
     2014.27789        -3.89638         4.99923
     2014.28062        -0.42460         5.02356
     2014.28336        -5.04182         5.01726
     2014.28610        -5.56504         5.14881
     2014.28884        -6.93126         5.60567
     2014.29158        -8.30248         4.97220
     2014.29431        -3.52870         4.98392
     2014.29705        -0.64492         5.02266
     2014.29979        -7.71614         5.11007
     2014.30253        -2.18736         5.04339
     2014.30527        -2.42258         5.07673
     2014.30800        -5.98480         4.99293
     2014.31074        -4.19402         5.10736
     2014.31348        -7.23824         5.00464
     2014.31622        -1.34846         4.97671
     2014.31895        -1.93568         5.05781
     2014.32169        -8.98790         5.14701
     2014.32443       -12.35612         5.10736
     2014.32717       -13.98434         5.14161
     2014.32991        -3.59256         4.99563
     2014.33264        -8.00478         5.02987
     2014.33538        -9.39600         5.05690
     2014.33812        -4.53922         5.14251
     2014.34086        -0.18244         5.03708
     2014.34360        -2.91266         5.03167
     2014.34633        -6.98688         5.02086
     2014.34907        -8.01110         5.26776
     2014.35181        -1.13932         5.14791
     2014.35455        -4.40554         5.01816
     2014.35728       -10.09876         5.01095
     2014.36002       -14.74898         5.01996
     2014.36276       -12.83420         5.01545
     2014.36550       -11.12142         5.02176
     2014.36824       -11.02864         5.11187
     2014.37097       -11.66086         5.55971
     2014.37371        -0.61008         5.09024
     2014.37645        -2.62430         5.06591
     2014.37919        -4.93052         5.09295
     2014.38193       -10.46774         5.09385
     2014.38466        -6.01097         5.09475
     2014.38740        -5.51019         5.08213
     2014.39014        -6.24641         5.14251
     2014.39288        -7.03763         5.10827
     2014.39561        -4.09085         5.15783
     2014.39835        -0.90007         5.12449
     2014.40109        -5.73429         5.09205
     2014.40383        -5.09951         5.10736
     2014.40657       -10.82673         5.09205
     2014.40930        -6.62195         5.11908
     2014.41204        -6.73017         5.17134
     2014.41478        -9.00839         5.06231
     2014.41752        -1.23261         5.01185
     2014.42026        -4.43283         5.08033
     2014.42299        -8.68005         5.14161
     2014.42573        -5.82627         5.01636
     2014.42847        -4.64049         5.18306
     2014.43121        -8.59371         5.01275
     2014.43394        -6.09693         5.03348
     2014.43668        -7.42415         5.07853
     2014.43942        -5.23737         5.09926
     2014.44216        -9.99659         5.11007
     2014.44490        -2.39581         5.13890
     2014.44763         5.40197         5.25334
     2014.45037        -4.83325         4.98662
     2014.45311        -2.57447         4.99383
     2014.45585        -4.91969         5.05600
     2014.45859        -7.33091         4.92715
     2014.46132        -4.09313         4.97130
     2014.46406        -5.42135         4.97851
     2014.46680        -7.19457         5.44077
     2014.46954        -4.02679         4.94697
     2014.47227        -5.66301         4.98211
     2014.47501        -5.74823         4.95959
     2014.47775        -0.60645         4.89651
     2014.48049        -5.03267         4.97851
     2014.48323        -1.06989         4.98752
     2014.48596        -2.74511         5.13169
     2014.48870         4.45467         5.02807
     2014.49144         1.70745         4.87308
     2014.49418        -4.81978         4.89651
     2014.49692        -7.23400         4.89831
     2014.49965        -5.95222         4.97941
     2014.50239        -6.41544         5.09926
     2014.50513        -7.08166         4.99563
     2014.50787        -4.36788         4.93436
     2014.51060        -5.99910         4.88750
     2014.51334        -0.14032         4.90102
     2014.51608        -3.49254         4.98211
     2014.51882         2.72524         5.11367
     2014.52156         7.68702         5.00734
     2014.52429         2.78980         4.89200
     2014.52703         3.06558         4.96139
     2014.52977        -2.68464         4.91003
     2014.53251         1.64314         5.00374
     2014.53525         4.98192         4.89381
     2014.53798         2.94370         4.93436
     2014.54072         3.40648         4.95869
     2014.54346         5.50026         4.98932
     2014.54620         3.25804         5.11367
     2014.54893        11.37382         5.05690
     2014.55167         4.68660         5.15152
     2014.55441         0.46738         5.19297
     2014.55715         3.92416         5.27947
     2014.55989         0.56294         5.11367
     2014.56262         3.61072         5.00104
     2014.56536         5.28350         4.98752
     2014.56810         0.34928         5.08844
     2014.57084        -0.04294         5.09835
     2014.57357        -3.83416         5.02266
     2014.57631        -7.40238         5.04519
     2014.57905         0.71040         5.12358
     2014.58179         5.05718         5.09024
     2014.58453        11.56096         5.12809
     2014.58726        -1.38126         5.42635
     2014.59000         5.18752         5.24343
     2014.59274         0.09130         5.10917
     2014.59547         6.42607         5.11998
     2014.59822         1.93386         5.23892
     2014.60095         1.21263         5.19747
     2014.60369         3.93841         5.05510
     2014.60643        -5.14281         5.06411
     2014.60917         0.83597         5.20739
     2014.61190         3.67175         5.35697
     2014.61464         5.75053         5.55521
     2014.61738         6.68031         5.37048
     2014.62012         0.79709         5.26506
     2014.62286         1.90787         5.14071
     2014.62559         3.74765         5.08574
     2014.62833         8.09743         5.06862
     2014.63107         9.32821         5.20739
     2014.63381        -2.25201         5.24974
     2014.63654         9.69977         5.16684
     2014.63928         1.89255         5.13980
     2014.64202        -1.39967         5.03077
     2014.64476         0.85211         5.06862
     2014.64750         2.36689         5.01185
     2014.65023        -0.11433         5.02356
     2014.65252        10.30799         6.12019
     2014.65942        -0.67601        10.20842
     2014.66119        -0.56521         5.16323
     2014.66393        10.65857         5.05240
     2014.66666         6.08735         4.88570
     2014.66940         6.80713         4.93706
     2014.67214         7.00491         5.10016
     2014.67488         4.21969         4.95778
     2014.67761         0.91947         4.99923
     2014.68035         3.02625         5.01726
     2014.68309        -0.61197         4.92354
     2014.68583         6.88481         5.02717
     2014.68856         7.05759         5.07042
     2014.69130         0.76437         4.97220
     2014.69404        -1.89285         4.93346
     2014.69678         0.94293         5.00915
     2014.69952         6.30671         5.00644
     2014.70225         5.67149         4.89921
     2014.70499         6.23827         4.99022
     2014.70773         5.60704         5.01005
     2014.71047         9.62382         4.97400
     2014.71321        16.14560         4.92444
     2014.71594         8.49838         4.96049
     2014.71868         7.57416         5.07763
     2014.72142         5.46194         4.95778
     2014.72416         7.83373         5.03348
     2014.72689         9.35750         5.04609
     2014.72963         6.65428         5.03348
     2014.73237         0.13906         5.04519
     2014.73511         0.42784         4.96229
     2014.73785        -4.24038         4.92625
     2014.74058         2.81940         4.96409
     2014.74332         8.20818         5.16233
     2014.74606        10.09896         5.10917
     2014.74880        11.56974         4.92985
     2014.75154         8.96453         5.04519
     2014.75427         3.07930         5.13079
     2014.75701         6.31908         4.94607
     2014.75975        -1.73714         4.95238
     2014.76249         7.35864         4.96229
     2014.76522         6.00842         4.92985
     2014.76796         4.70920         4.98121
     2014.77070         4.09998         4.97310
     2014.77344         4.45976         4.86497
     2014.77618        12.51554         4.98482
     2014.77891         9.91232         4.89741
     2014.78165         6.10310         4.94337
     2014.78439         6.09788         4.97400
     2014.78713        15.82066         5.05690
     2014.78987         3.83144         4.90552
     2014.79260         9.60822         4.99923
     2014.79534        10.43700         4.93436
     2014.79808         7.10778         4.98211
     2014.80082         3.75156         5.12899
     2014.80355         5.22734         5.08394
     2014.80629         5.10212         5.05330
     2014.80903         6.06990         5.14972
     2014.81177        11.57668         4.91724
     2014.81451         7.19646         4.98392
     2014.81724         7.87223         4.93796
     2014.81998         9.66301         4.97491
     2014.82272         8.57979         5.03528
     2014.82454        11.02565         8.56934
     2014.82820        -0.83165         6.10667
     2014.83093         6.07213         4.95418
     2014.83367         7.31991         4.92985
     2014.83641         8.22469         4.96319
     2014.83915         6.86747         4.97310
     2014.84188         7.99425         5.19837
     2014.84462         2.45803         5.05150
     2014.84736         2.41581         4.99203
     2014.85010         4.70359         4.96049
     2014.85284         4.25637         5.01095
     2014.85557         4.12815         5.18756
     2014.85831         5.42793         4.99112
     2014.86105         2.62771         5.20829
     2014.86379         2.56249         4.91543
     2014.86653         1.46427         4.99563
     2014.86926       -16.33995         5.00104
     2014.87202       -16.02915         5.01726
     2014.88021       -13.91783         5.32182
     2014.88295        -3.25805         4.99383
     2014.88569         5.69973         5.27497
     2014.88843        10.72451         5.22451
     2014.89117         6.49629         5.44167
     2014.89390        11.17107         5.05781
     2014.89664         8.38485         5.16864
     2014.89938         4.61363         5.16684
     2014.90212        -0.28159         5.02537
     2014.90485        -0.59881         4.98572
     2014.90759         3.83297         5.06411
     2014.91033         9.80475         5.11818
     2014.91307         9.53353         4.94967
     2014.91581        10.50231         4.96860
     2014.91854         6.94109         4.99203
     2014.92128         6.98387         4.92084
     2014.92402         7.13564         4.92174
     2014.92676         5.35842         4.85146
     2014.92950        -0.08380         5.00464
     2014.93223        -3.69302         4.99112
     2014.93497        -0.55524         4.96589
     2014.93771        -1.89246         4.93165
     2014.94045        -2.45768         5.08844
     2014.94318         7.42510         5.24433
     2014.94592         0.28588         4.88660
     2014.94866       -17.88134         4.94607
     2014.95140        -1.05656         4.84245
     2014.95414         3.72422         4.78207
     2014.95687         8.92000         4.87759
     2014.95961         8.08978         4.88480
     2014.96235         0.64256         4.85055
     2014.96509         6.32434         4.92084
     2014.96783         1.46512         4.86948
     2014.97056         4.95490         4.87038
     2014.97330         3.87268         5.09926
     2014.97604        -6.33954         4.81181
     2014.97878         1.25524         4.95869
     2014.98151         7.94102         4.94066
     2014.98425         0.31880         4.84245
     2014.98699         0.59158         4.90372
     2014.98973        -3.67064         4.83974
     2014.99247        -7.96786         5.02356
     2014.99520       -16.66708         4.80820
     2014.99794       -12.03930         4.93526
     2015.00068        -9.83152         4.78297
     2015.00342        -7.11874         4.87669
     2015.00616        -6.75296         4.93165
     2015.00889       -11.68419         5.04249
     2015.01163         1.61860         5.04249
     2015.01437        -5.11162         4.97941
     2015.01711        -4.09784         4.95418
     2015.01984         0.87693         4.99022
     2015.02258         0.94972         5.05150
     2015.02532         1.27850         5.00644
     2015.02806        -2.87872         4.89381
     2015.03079        -0.71995         5.14071
     2015.03353        -5.68117         4.87939
     2015.03627        -0.43139         4.86768
     2015.03901         0.47039         5.01636
     2015.04175         6.97617         4.94787
     2015.04449        -2.77005         4.93886
     2015.04722         1.82773         4.95058
     2015.04996        -0.45549         5.11457
     2015.05270        -0.73171         4.94517
     2015.05544        -4.19793         4.94517
     2015.05817        -0.66515         4.88209
     2015.06091        -0.32637         4.89741
     2015.06365         6.41241         5.02627
     2015.06639         2.53119         4.95148
     2015.06913         1.57797         5.02446
     2015.07186        -5.38925         4.83884
     2015.07460        -1.15547         4.83974
     2015.07734        -6.09369         4.79108
     2015.08008        -8.64091         4.84695
     2015.08282        -1.91513         4.86677
     2015.08555        -1.45935         4.86227
     2015.08829        -0.69557         4.85686
     2015.09103         1.52621         4.81902
     2015.09377        -0.93001         4.83794
     2015.09650         0.72377         4.97310
     2015.09924         3.12255         5.05781
     2015.10198         0.09633         5.00464
     2015.10472         3.32811         4.99022
     2015.10746        -2.70111         5.08754
     2015.11019        -3.74233         5.23442
     2015.11293        -5.30755         4.96229
     2015.11567        -7.46377         4.91904
     2015.11841        -9.38699         4.89020
     2015.12115        -4.45621         4.96139
     2015.12388        -6.32543         4.86768
     2015.12662        -7.68665         4.88119
     2015.12936        -3.23287         4.90102
     2015.13210        -5.96209         5.25875
     2015.13483        -3.50531         5.00194
     2015.13757         1.57747         4.95058
     2015.14031        -5.45576         4.92444
     2015.14305        -3.13798         4.94607
     2015.14579        -3.59620         4.93706
     2015.14852        -2.25742         4.94607
     2015.15126         0.87236         4.86227
     2015.15400        -4.61386         5.02266
     2015.15651        -4.17631         5.34525
     2015.15948         2.33770         4.89200
     2015.16221        -0.02252         4.85776
     2015.16495        -0.88474         4.93886
     2015.16769        -3.29996         4.89110
     2015.17043        -1.91218         4.98031
     2015.17316        -1.72440         5.07312
     2015.17590        -4.82862         6.28869
     2015.17864        -4.38484         4.91904
     2015.18138        -1.42106         4.92174
     2015.18412         3.06272         4.91904
     2015.18685        -6.81350         4.90913
     2015.18959         0.34028         4.94427
     2015.19233        -4.81094         5.00915
     2015.19507        -3.51816         5.04068
     2015.19780        -2.41238         4.90913
     2015.20054        -0.74060         4.96770
     2015.20328        -5.44682         4.97581
     2015.20602        -5.97404         4.94607
     2015.20875        -8.18827         5.10646
     2015.21149        -9.50548         4.89291
     2015.21423        -8.51670         5.15692
     2015.21697        -4.90092         4.91003
     2015.21971        -4.90714         4.90192
     2015.22245       -10.66036         4.90102
     2015.22518        -3.48958         4.91543
     2015.22792        -6.85980         4.88480
     2015.23066        -3.87302         4.85146
     2015.23340        -3.59624         4.98572
     2015.23613        -2.51646         5.09655
     2015.23887        -5.19968         5.16233
     2015.24161        -4.20990         5.11457
     2015.24435        -5.47412         5.17585
     2015.24709         3.04365         4.98572
     2015.24982        -4.24557         4.84064
     2015.25256        -5.57479         4.88930
     2015.25530        -6.25301         4.87308
     2015.25804        -7.25023         4.87218
     2015.26077         3.30755         4.91724
     2015.26351         0.66633         4.88480
     2015.26625        -0.86789         4.88660
     2015.26899        -6.17911         4.93976
     2015.27173         0.43067         4.96409
     2015.27446         4.09045         5.05150
     2015.27720        -2.03077         4.90282
     2015.27994        -2.52899         4.98842
     2015.28268        -7.17321         4.99022
     2015.28542        -5.35843         5.08484
     2015.28815        -7.15565         5.05060
     2015.29089        -3.27987         4.93526
     2015.29363        -5.99409         4.90552
     2015.29637        -2.17531         4.94697
     2015.29911         0.29147         4.91003
     2015.30184        -0.48375         5.00825
     2015.30458        -1.49897         4.98842
     2015.30732        -2.64919         4.81001
     2015.31006        -7.62241         4.83163
     2015.31279        -0.98563         4.86137
     2015.31553        -6.18785         4.81902
     2015.31827        -6.99408         4.97130
     2015.32101        -6.71329         4.83884
     2015.32375        -4.68551         4.95778
     2015.32648        -7.25073         4.96049
     2015.32922        -3.41295         4.90011
     2015.33196        -0.94717         4.77847
     2015.33470        -3.03939         4.79379
     2015.33744        -1.77461         4.88570
     2015.34017        -5.11184         4.83434
     2015.34291        -4.52405         4.87038
     2015.34565        -0.45327         4.70188
     2015.34839        -0.83849         4.82532
     2015.35112        -3.59771         4.77847
     2015.35386        -2.81993         4.91363
     2015.35660        -2.34416         4.76585
     2015.35934        -4.78738         4.91724
     2015.36208        -5.02760         4.86587
     2015.36481        -2.97482         4.71449
     2015.36755         0.08096         4.75234
     2015.37029         0.74274         4.74152
     2015.37303        -6.40848         4.75684
     2015.37577        -5.80870         4.77757
     2015.37850        -9.83692         4.94427
     2015.38124        -4.59514         4.86587
     2015.38398        -4.50936         4.88480
     2015.38672        -2.16458         4.91273
     2015.38945        -4.89380         4.85326
     2015.39219        -8.79402         4.79469
     2015.39493        -2.43024         4.95869
     2015.39767       -10.74646         4.88209
     2015.40041        -6.78968         4.86137
     2015.40314        -9.93790         5.01906
     2015.40588       -11.18212         4.80190
     2015.40862        -4.01234         5.05961
     2015.41136        -5.49756         4.96860
     2015.41410        -0.39578         4.93526
     2015.41683        -3.90100         4.77306
     2015.41957        -3.39522         4.77306
     2015.42231        -9.79044         4.93706
     2015.42505       -11.39666         5.06141
     2015.42778        -6.30388         4.81451
     2015.43052        -6.45010         4.81812
     2015.43326        -7.02732         4.86858
     2015.43600        -6.32354         4.83434
     2015.43874         0.90924         4.88299
     2015.44147        -5.28998         5.03978
     2015.44421        -6.48020         4.85506
     2015.44695        -5.00242         4.79198
     2015.44969        -3.94864         4.89831
     2015.45243        -5.39986         5.00014
     2015.45516        -7.41508         4.95238
     2015.45790        -3.10230         4.95238
     2015.46064        -1.28952         4.97941
     2015.46338        -2.98275         5.10016
     2015.46611         0.45903         4.96319
     2015.46885         1.86981         4.91543
     2015.47159        -1.56941         4.95148
     2015.47433        -7.67663         4.93165
     2015.47707        -3.41685         4.94337
     2015.47980        -2.71107         4.92985
     2015.48254        -1.17129         5.09385
     2015.48528        -0.05351         4.81721
     2015.48802         1.85927         4.97761
     2015.49076         6.60205         5.09385
     2015.49349        -0.08717         5.06141
     2015.49623        -2.97239         5.51556
     2015.49897         1.54639         5.05690
     2015.50171         1.05317         4.85957
     2015.50444        11.56695         4.89110
     2015.50718        -0.41627         4.90552
     2015.50992         5.85451         4.81721
     2015.51266         3.35629         4.86317
     2015.51540         7.43307         5.16864
     2015.51813         5.31785         5.10376
     2015.52087        13.47563         5.04699
     2015.52361         8.96541         4.94877
     2015.52635        -2.03481         4.86677
     2015.52908         1.37197         4.91453
     2015.53182         5.14775         4.97581
     2015.53456         6.84653         4.98932
     2015.53730         7.24431         4.84695
     2015.54004         3.78409         5.01996
     2015.54277         1.85687         4.99112
     2015.54551         6.34865         5.04789
     2015.54825         5.01743         4.99563
     2015.55099        15.54421         4.92174
     2015.55373        10.55099         5.05150
     2015.55646        14.68677         4.99383
     2015.55920         8.96255         5.07312
     2015.56194         8.46333         5.05060
     2015.56468         9.80111         4.92895
     2015.56741         5.37189         5.01996
     2015.57015         6.57466         5.09475
     2015.57289         1.70444         5.18666
     2015.57563         3.47922         4.95058
     2015.57837         8.13500         4.92535
     2015.58110        12.48078         4.92535
     2015.58384         8.35656         4.90372
     2015.58658        10.25334         4.91093
     2015.58932         3.72512         5.04609
     2015.59206         3.15390         4.97761
     2015.59479        15.87968         4.94066
     2015.59753        11.51346         4.98031
     2015.60027        12.02524         5.04699
     2015.60301        12.21402         5.15873
     2015.60574         8.74580         5.05781
     2015.60848        15.54758         4.98031
     2015.61122        20.27936         5.00104
     2015.61396        15.73514         5.00644
     2015.61670         8.95592         4.88660
     2015.61943         7.88070         4.91183
     2015.62217        12.35348         4.90282
     2015.62491        17.57026         4.85416
     2015.62765         9.94304         4.81271
     2015.63039        10.14482         4.76946
     2015.63312        10.07460         4.83614
     2015.63518        13.16768         7.05011
     2015.65039         4.37313         8.74055
     2015.65229        11.63106         4.86587
     2015.65503        17.38784         4.80100
     2015.65776        12.87262         4.93526
     2015.66050        10.09240         4.79919
     2015.66324        10.29918         4.77486
     2015.66598        11.40096         4.89200
     2015.66872        12.87274         4.85596
     2015.67145        13.18952         4.81451
     2015.67419        10.56030         4.73341
     2015.67693        10.63808         4.77937
     2015.67967         9.33985         4.89381
     2015.68240         6.59163         4.83073
     2015.68514         4.11041         4.88930
     2015.68788        12.36519         4.86858
     2015.69062         8.03397         4.84154
     2015.69336         5.24975         5.02807
     2015.69609         7.22353         4.84875
     2015.69883        10.82331         4.88480
     2015.70157        12.00309         4.93886
     2015.70431        14.47287         4.86497
     2015.70705        12.47165         4.82172
     2015.70978        12.16643         4.83343
     2015.71252         7.08221         4.83794
     2015.71526         7.96599         4.87759
     2015.71800        10.26177         4.84515
     2015.72073        13.35055         4.83704
     2015.72307         9.14593         5.74894
     2015.72992        17.68087         8.99105
     2015.73169         8.48467         4.83614
     2015.73363         5.51964         7.58806
     2015.73716        11.21623         4.81812
     2015.73990        10.46601         4.96499
     2015.74264         8.08979         4.94156
     2015.74538        11.09057         5.05060
     2015.74811        10.05835         5.03978
     2015.75085         1.81513         4.81271
     2015.75359         8.66791         4.97040
     2015.75633        11.15269         4.84515
     2015.75906         9.11147         4.83253
     2015.76180         5.31825         4.84965
     2015.76454         6.89403         4.83974
     2015.76728         3.17781         4.87579
     2015.77002         4.29559         4.86768
     2015.77275         9.41037         4.91093
     2015.77549        14.51315         4.96680
     2015.77823        13.47593         4.83434
     2015.78097        12.74571         4.86137
     2015.78371        12.63149         4.81631
     2015.78644        11.32126         4.84875
     2015.78918         7.07004         4.84605
     2015.79192        11.08982         4.89200
     2015.79466        11.97760         4.80460
     2015.79739        11.75638         4.85055
     2015.80013         6.02116         4.97581
     2015.80287         6.32494         4.83704
     2015.80561         7.90272         4.90011
     2015.80835         6.26150         4.82713
     2015.81108         6.51928         4.84245
     2015.81382         6.13106         4.95238
     2015.81656         8.33184         4.91273
     2015.81930         7.49462         4.84695
     2015.82203         9.42440         4.84064
     2015.82477        10.38818         4.90282
     2015.82751         8.29296         4.84154
     2015.83025        19.82274         4.95058
     2015.83299         4.95052         4.94427
     2015.83572         9.44830         4.88930
     2015.83846         6.42608         4.95778
     2015.84120         4.96986         4.90822
     2015.84394         7.10164         4.93976
     2015.84668         4.65442         4.98031
     2015.84941         6.37220         5.01365
     2015.85215        12.39898         4.99293
     2015.85489        13.44076         5.01185
     2015.85763         5.81554         4.90913
     2015.86036         6.88432         4.98301
     2015.86310         5.53310         5.00644
     2015.86584        11.22088         5.07673
     2015.86858         5.72366         5.03167
     2015.87132         4.24244         5.04429
     2015.87405         6.99322         4.92715
     2015.87679         3.08200         5.10016
     2015.87953         9.26778         5.05240
     2015.88227         8.85756         5.01185
     2015.88757       -12.36806         5.30560
     2015.89416        -4.96837         8.67027
     2015.89596         3.18045         4.93436
     2015.89869         7.90423         4.96499
     2015.90143         0.79201         4.94066
     2015.90417        -0.89621         4.95778
     2015.90691         2.80757         4.95778
     2015.90965         5.53835         4.96680
     2015.91238         3.42613         4.96409
     2015.91512         1.56791         4.97040
     2015.91786         0.03469         5.01545
     2015.92060         4.76247         5.04789
     2015.92334         5.92725         4.99022
     2015.92607        -0.68097         4.98482
     2015.92881         1.53781         5.09475
     2015.93155         2.45759         5.11007
     2015.93429         5.14637         5.43266
     2015.93702         3.34615         5.14251
     2015.93976         8.03693         5.20108
     2015.94250         7.73071         5.08934
     2015.94524         3.22649         5.03978
     2015.94798        -0.32373         5.06501
     2015.95071         3.49005         4.86047
     2015.95345         0.35983         4.92715
     2015.95619         7.62361         4.92084
     2015.95893         3.59339         5.07312
     2015.96988         3.80551         4.91273
     2015.97262        14.07829         4.91724
     2015.97535         7.35507         4.93346
     2015.97809        10.14285         4.91453
     2015.98083         3.25963         4.89381
     2015.98357        -6.48059         4.91904
     2015.98631        -2.95081         5.02446
     2015.98904        -0.58903         4.90552
     2015.99178        -6.68725         4.89561
     2015.99452        -7.10247         4.89110
     2015.99726        -4.65369         4.89741
     2016.00000        -8.26091         4.93796
     2016.00273        -4.62914         4.91093
     2016.00547        -5.75736         4.90282
     2016.00821        -5.60858         4.98392
     2016.01095         1.56720         4.90372
     2016.01368         1.42598         4.96860
     2016.01642         2.21276         4.99293
     2016.01916         1.40354         5.08664
     2016.02190         4.33132         4.99383
     2016.02464         1.69710         4.98031
     2016.02737        -0.04412         5.01275
     2016.03011         1.51466         5.13260
     2016.03285         3.74744         4.89110
     2016.03559         6.46822         4.83704
     2016.03833        -0.43500         4.97491
     2016.04106        -1.14122         4.86677
     2016.04380         2.26756         4.91273
     2016.04654         4.55934         4.86677
     2016.04928         4.06412         4.81001
     2016.05201         0.19490         4.85055
     2016.05475         1.80068         4.85416
     2016.05749        -1.67954         4.99743
     2016.06023         0.70324         4.88750
     2016.06297         5.03602         4.86677
     2016.06570         0.04980         4.88119
     2016.06844         0.74558         4.92264
     2016.07118        -4.85264         4.89561
     2016.07392         1.17214         5.06682
     2016.07666         3.51892         5.08394
     2016.07939        10.75870         4.92985
     2016.08213         3.12848         5.07222
     2016.08487         2.32926         4.88660
     2016.08761        -3.90596         4.88209
     2016.09034        -1.61318         4.90552
     2016.09308        -0.03340         5.02717
     2016.09542        -7.75103         5.78498
     2016.10483        -8.76847         7.58355
     2016.10677        -5.63150         4.87038
     2016.10951        -5.87773         4.92805
     2016.11225        -4.85195         4.86047
     2016.11498        -3.07217         4.84425
     2016.11772        -5.44639         4.82803
     2016.12046        -2.04361         4.90642
     2016.12320        -2.43783         4.90642
     2016.12594         3.87195         4.86407
     2016.12867         0.89273         4.85686
     2016.13141         8.36551         4.89291
     2016.13415         2.43329         5.00554
     2016.13689        -0.03593         4.85776
     2016.13963        -3.19415         4.88930
     2016.14236        -8.96237         4.88840
     2016.14516        -5.58053         4.89200
     2016.14784        -5.13481         4.86497
     2016.15058        -3.32903         4.82713
     2016.15252       -10.86006         8.38552
     2016.15879        -1.22269         4.93796
     2016.16153        -2.77891         4.93165
     2016.16427        -3.79313         5.21459
     2016.16700        -6.14335         5.05240
     2016.16974        -5.78857         4.89381
     2016.17248        -1.91979         4.99293
     2016.17522        -0.19601         4.88660
     2016.17796         3.36877         4.85236
     2016.18069         5.54555         4.94337
     2016.18343        -1.68267         5.08213
     2016.18617         1.94811         4.82262
     2016.18891         2.70089         4.75053
     2016.19164         2.28667         4.75594
     2016.19438         3.96945         4.81181
     2016.19712         0.57223         4.75594
     2016.19986         8.76301         4.95418
     2016.20260        -7.38121         4.88119
     2016.20533       -16.34643         4.94697
     2016.20807        -3.01365         4.91724
     2016.21081        -5.02187         4.89291
     2016.21355        -0.58209         4.92084
     2016.21629        -1.38731         4.80280
     2016.21902         0.83046         4.87308
     2016.22176         5.80924         4.77757
     2016.22450        -2.88498         4.73522
     2016.22724        -1.82120         4.86587
     2016.22997         4.09558         4.81812
     2016.23271        -0.22764         4.80730
     2016.23545         3.47414         4.88750
     2016.23819         1.03892         4.79289
     2016.24093         4.13670         4.81091
     2016.24366        -1.45752         4.83524
     2016.24640         4.29226         4.89200
     2016.24914        -0.68396         4.83073
     2016.25188         1.95582         4.88660
     2016.25462         1.48460         4.79469
     2016.25735        -2.91062         4.87669
     2016.26009        -4.68684         5.43897
     2016.26283        -5.42106         4.87308
     2016.26557        -3.48728         4.78838
     2016.26830        -2.51850         4.87218
     2016.27104        -1.44572         4.84785
     2016.27378         4.46706         4.83884
     2016.27652        -5.80716         4.86137
     2016.27926         2.74262         4.79469
     2016.28142        -2.58318         6.37790
     2016.28815        -4.42735         6.80772
     2016.29021        -7.71626         4.90462
     2016.29295        -4.55348         4.83884
     2016.29568        -7.22270         4.79198
     2016.29842        -1.55392         4.98121
     2016.30116        -2.43514         4.87759
     2016.30390        -9.83036         4.94337
     2016.30663        -3.84658         4.93976
     2016.30937        -3.22680         4.82532
     2016.31211        -0.74702         4.80820
     2016.31485         2.13576         4.77757
     2016.31759        -2.68846         4.85326
     2016.32032        -5.44168         4.80460
     2016.32306        -8.20490         4.80190
     2016.32580        -5.41013         4.78748
     2016.32854        -3.14435         4.76585
     2016.33128        -5.80857         4.78838
     2016.33401        -7.23479         4.80550
     2016.33675        -3.04701         4.93976
     2016.33949         0.17277         5.13350
     2016.34223        -2.67145         4.87759
     2016.34496         0.96633         4.93976
     2016.34770         0.37311         4.92715
     2016.35044        -1.37411         5.03348
     2016.35318        -2.04533         4.82893
     2016.35592        -6.24155         4.81181
     2016.35865       -10.06677         4.78928
     2016.36139        -8.38099         4.97130
     2016.36413        -0.91121         4.89831
     2016.36687         0.62557         4.90462
     2016.36961         6.46335         4.77847
     2016.37234         5.88213         4.78928
     2016.37508        -3.75209         4.76405
     2016.37782       -11.19731         4.85326
     2016.38056        -1.42153         4.87128
     2016.38329         2.47225         4.79739
     2016.38603        -3.40597         4.74062
     2016.38877        10.73081         4.73972
     2016.39151         1.14559         4.83614
     2016.39396        -0.20492         5.52006
     2016.41404       -16.47654         9.30103
     2016.41615       -12.07839         4.94787
     2016.41889         1.61539         4.80009
     2016.42162         0.21017         5.00825
     2016.42436        -8.18705         4.83434
     2016.42710        -3.11427         4.86768
     2016.42984        -2.32549         4.87128
     2016.43258         3.29328         4.84425
     2016.43531         5.99706         5.04879
     2016.43805         1.74884         4.86407
     2016.44079         1.19562         4.88209
     2016.44353        -4.24560         4.87669
     2016.44626        -1.68682         4.82352
     2016.44900        -0.71804         4.83794
     2016.45174         2.52074         4.91633
     2016.45448         2.72752         4.87759
     2016.45722        -0.66970         4.84515
     2016.45995         0.47408         4.81451
     2016.46269         0.96286         4.82262
     2016.46543        -2.69136         4.79469
     2016.46822        -1.32052         4.86858
     2016.47096         1.37926         4.95418
     2016.47370        -0.85396         4.89291
     2016.47644         5.93582         4.89921
     2016.47918         6.33460         5.06501
     2016.48191         5.68138         4.86317
     2016.48465        -2.50884         4.84335
     2016.48739        -1.42906         5.87779
     2016.49013         4.78872         4.93436
     2016.49287         6.32650         4.89200
     2016.49560         3.58128         4.92264
     2016.49828         0.59900         4.83614
     2016.50102         4.40478         4.76765
     2016.50376         3.49856         5.00734
     2016.50650         6.97434         4.90732
     2016.50924         7.22112         4.81271
     2016.51197        -0.83810         4.84875
     2016.51477         3.16074         4.85055
     2016.51751         4.90452         4.98392
     2016.52024         3.23329         5.89582
     2016.52298         4.03407         4.90552
     2016.52572         5.58385         4.91904
     2016.52846        -0.48737         4.90913
     2016.53120        -0.57959         4.87939
     2016.53393         1.31519         4.91453
     2016.53667         4.23397         4.94066
     2016.53941         5.03775         4.95688
     2016.54215         2.10653         5.00284
     2016.54488        11.77831         4.94337
     2016.54762        -0.01791         4.97040
     2016.55036         3.23887         5.10646
     2016.55310         5.90265         4.96229
     2016.55584         9.76343         5.07763
     2016.55852         2.54315         5.19657
     2016.56131         5.61699         4.88930
     2016.56405         3.87877         4.89471
     2016.56679         5.55355         5.09115
     2016.56953         2.23533         5.15783
     2016.57226         8.46411         4.94967
     2016.57500         4.02189         5.11728
     2016.57774        10.99267         4.94156
     2016.58048        10.24745         4.90011
     2016.58321         4.74523         4.88390
     2016.58595         7.68601         4.91814
     2016.58869         5.03879         4.97400
     2016.59137         1.32651         4.81451
     2016.59411        11.17929         4.87849
     2016.59685         8.71507         4.85326
     2016.59958         7.62285         4.89561
     2016.60232         6.00063         4.85776
     2016.60506         8.07041         4.86317
     2016.60780         7.43419         4.89831
     2016.61054         0.16097         4.83794
     2016.61327         3.41575         4.75594
     2016.61601         5.31153         4.81091
     2016.61875        10.52131         4.89110
     2016.62149         6.26809         4.97581
     2016.62423         9.00587         4.88570
     2016.62696         7.26265         4.79739
     2016.62970         3.77943         4.79559
     2016.63244         1.18021         4.88930
     2016.63518         6.03299         4.99833
     2016.63786        14.61971         4.91994
     2016.64971         0.96074         8.43598
     2016.65160         8.41066         4.94787
     2016.65434         6.67144         4.80280
     2016.65708        -0.96678         4.89651
     2016.65982        -0.73200         4.90011
     2016.66256         5.75578         4.92805
     2016.66529         3.81356         4.85416
     2016.66803         8.45934         4.85326
     2016.67077         5.89612         4.94156
     2016.67351         7.11490         4.86137
     2016.67624        12.79568         4.76045
     2016.67898        10.78046         5.13350
     2016.68172        11.94124         4.87038
     2016.68446         9.25302         4.99112
     2016.68720         9.05280         5.23262
     2016.68993         8.75458         5.00554
     2016.69267         4.03536         4.82082
     2016.69541         9.83514         4.91273
     2016.69815        11.21192         4.82262
     2016.70089        10.75270         4.84785
     2016.70362         9.15448         4.97761
     2016.70636         6.77126         5.11728
     2016.70910         6.03504         5.07132
     2016.71184        14.87282         4.88029
     2016.71457        15.26860         4.95328
     2016.71731        11.57238         4.86137
     2016.72005         6.72316         4.83524
     2016.72279         9.91094         4.87308
     2016.72553        11.11272         4.92264
     2016.72729         7.49751         8.99466
     2016.73648         3.15484         4.99293
     2016.73921         5.83862         4.77847
     2016.74195         6.45440         4.87308
     2016.74469         1.78318         4.88119
     2016.74743         8.80296         4.92535
     2016.75017        13.19574         4.88480
     2016.75290        10.48652         4.78748
     2016.75564        14.25430         4.91363
     2016.75838        15.55007         4.86768
     2016.76112         7.82485         4.81631
     2016.76386         6.40363         4.85236
     2016.76659         9.36941         4.81812
     2016.76933         5.68619         4.82983
     2016.77207         4.66297         4.95959
     2016.77481        12.73175         4.97491
     2016.77754         4.72553         4.84605
     2016.78028         4.89131         4.81812
     2016.78302         6.30309         4.87488
     2016.78576         8.70687         4.96319
     2016.78850        14.86265         4.91814
     2016.79123         9.01943         4.87939
     2016.79397        12.25421         5.03438
     2016.79677         4.36705         4.94787
     2016.79945         1.82477         4.80730
     2016.80219         5.33855         4.89020
     2016.80492         9.36433         4.93346
     2016.80766        11.17111         4.92444
     2016.81040         2.43289         4.80550
     2016.81314        -1.69433         4.89200
     2016.81587        -0.27455         4.85506
     2016.81838         0.70700         5.51195
     2016.83316        13.60700         7.84036
     2016.83504         1.61391         4.80640
     2016.83778         6.32969         4.92895
     2016.84052         2.29547         4.76225
     2016.84325        -2.30975         4.81631
     2016.84599         3.91403         4.81812
     2016.84873         9.39481         4.95688
     2016.85147        -0.50941         4.79559
     2016.85420         3.30837         4.77306
     2016.85694         0.55715         4.81812
     2016.85968        -0.21307         4.90192
     2016.86242         3.06771         4.87038
     2016.86516         6.60548         4.97220
     2016.86789         1.81326         4.88209
     2016.87063         6.03004         4.90372
     2016.87337         1.59582         5.02176
     2016.87611         6.60960         4.85236
     2016.87885         2.28838         4.77937
     2016.88158        -0.98084         4.84425
     2016.88432         0.77694         4.82442
     2016.88706         0.63272         4.88029
     2016.88980         6.48850         4.76856
     2016.89253         5.48228         4.82893
     2016.89527         3.36706         5.11097
     2016.89801         3.56284         4.89291
     2016.90075         0.13462         4.78748
     2016.90349         0.53640         4.97400
     2016.90622        10.97018         4.89291
     2016.90896         6.04796         4.83974
     2016.91170         5.88174         4.78117
     2016.91444         2.30352         4.77126
     2016.91718         4.83830         4.98752
     2016.91991        -2.76092         4.93796
     2016.92265         3.20886         4.78297
     2016.92539         5.01264         4.80190
     2016.92813        -0.19258         4.78838
     2016.93086        -4.24080         4.72981
     2016.93360        -3.96902         5.08754
     2016.93634        -1.62824         4.81631
     2016.93908       -15.32246         4.98932
     2016.94182        -5.37268         4.82262
     2016.94455        -0.99890         4.78027
     2016.94729         5.29588         4.80730
     2016.95003        -2.71134         5.00644
     2016.95277         0.71344         5.75164
     2016.96919       -18.35888         5.42455
     2016.97193        -1.32711         4.86137
     2016.97467         6.86267         4.75414
     2016.97741         4.81645         4.82172
     2016.98015        -2.90777         4.80730
     2016.98288        -4.49299         4.75864
     2016.98562        -3.46521         4.77216
     2016.98836         2.21257         4.74513
     2016.99110         9.09335         4.84064
     2016.99384         4.89913         4.85596
     2016.99657         5.12191         4.80910
     2016.99931         1.07269         4.84335
     2017.00088         8.67729        13.37034
     2017.00479        -1.33075         4.71359
     2017.00695        -5.64055         6.65093
     2017.01026        -3.66719         4.87669
     2017.01300        -2.21541         4.88570
     2017.01574        -2.25363         4.83253
     2017.01848         1.02115         4.82893
     2017.02121         1.62893         4.74693
     2017.02395         2.03471         4.82172
     2017.02669         0.05149         4.89561
     2017.02943        -2.74773         4.81091
     2017.03216        -9.56995         4.77036
     2017.03490        -9.26417         4.76135
     2017.03764       -11.21839         4.76405
     2017.04038       -13.64361         4.84064
     2017.04312        -9.01783         4.80910
     2017.04585        -8.07005         4.98752
     2017.04859        -0.46627         5.06501
     2017.05133         8.50251         4.78568
     2017.05281         6.10301        18.32182
     2017.06616        -3.19944        12.53593
     2017.06776        -4.72481         4.77306
     2017.07049        -9.59803         4.86407
     2017.07243       -13.53907         7.91155
     2017.08240       -18.43695         8.17737
     2017.08418        -8.15814         4.78207
     2017.08692        -9.37436         4.85416
     2017.08966       -10.97958         4.83614
     2017.09240       -21.80480         4.88299
     2017.09514        -4.38702         4.83524
     2017.09787         0.90176         4.79018
     2017.10061         2.74854         4.83884
     2017.10335        -2.61768         4.86407
     2017.10609        -2.82990         4.84605
     2017.10882        -4.54312         4.78027
     2017.11156        -5.98734         4.80370
     2017.11430        -7.18756         4.81902
     2017.11704       -13.25878         5.09115
     2017.11978        -8.42000         4.77667
     2017.12251       -10.16322         4.72080
     2017.12531        -4.51938         4.91724
     2017.12805         0.14940         4.97310
     2017.13078         2.47518         4.91814
     2017.13347         1.31490         4.78658
     2017.13620        -0.75932         4.89200
     2017.13894        -3.86054         4.81631
     2017.14168        -3.50276         4.83163
     2017.14442        -2.95898         4.86858
     2017.14715        -5.58720         4.81631
     2017.14989        -6.06942         5.01005
     2017.15263        -3.03264         4.83884
     2017.15537        -0.37586         4.78838
     2017.15811         0.59192         4.87308
     2017.16084        -4.56130         4.80280
     2017.16358        -8.17852         4.82803
     2017.16632        -4.07474         4.91814
     2017.16911        -5.60091         4.93165
     2017.17185         0.95387         5.00374
     2017.17459        -5.32835         4.96860
     2017.17733        -1.26057         5.08394
     2017.18001        -4.89184         4.76045
     2017.18275        -2.70606         4.85506
     2017.18548        -4.79228         4.80550
     2017.18822       -10.01351         4.90282
     2017.19096       -11.96273         4.75053
     2017.19370       -14.23895         4.88840
     2017.19644        -3.31017         4.88480
     2017.19917         0.07661         4.85686
     2017.20191        -3.36561         4.88750
     2017.20465        -6.91683         4.96139
     2017.20739        -5.63905         4.84515
     2017.21013        -3.73227         4.92625
     2017.21286        -2.85349         4.86497
     2017.21560        -4.92171         4.87849
     2017.21834        -7.40493         4.82983
     2017.22108         0.52085         4.79739
     2017.22381        -3.78037         4.90732
     2017.22655        -0.09559         4.93706
     2017.22929        -1.14781         4.84335
     2017.23203        -5.54603         4.77937
     2017.23477        -2.85425         4.75684
     2017.23750        -8.91147         4.73522
     2017.24024        -1.52769         4.81181
     2017.24298        -4.08591         4.82262
     2017.24475        -7.11911         9.89665
     2017.25941        -7.64923         4.91183
     2017.26186        -3.98674         5.47681
     2017.26579         4.90525         8.50176
     2017.26762        -1.43289         4.85416
     2017.27036         0.54089         4.73972
     2017.27310        -6.06333         4.87218
     2017.27566        -7.47673         5.25424
     2017.29312        -3.74501         7.73133
     2017.29500       -10.30410         4.78838
     2017.29871       -11.42333         8.96762
     2017.30047        -9.11654         4.83794
     2017.30224        -9.71274         9.63533
     2017.31226        -3.93357         7.47723
     2017.31416        -4.53464         4.76585
     2017.31690        -4.30486         4.77757
     2017.31964        -4.37208         4.93886
     2017.32238        -6.83930         4.87218
     2017.32512       -13.80452         4.74513
     2017.32785        -8.98274         4.73251
     2017.33059       -10.62096         4.74693
     2017.33333        -7.30618         4.81181
     2017.33607       -14.13440         4.77036
     2017.33880       -16.10762         4.80640
     2017.34154        -5.20384         4.89651
     2017.34428        -8.03506         4.72620
     2017.34702        -6.78128         4.73341
     2017.34976        -3.27950         4.77847
     2017.35249        -7.55572         4.79919
     2017.35523       -14.67794         4.72981
     2017.35797       -11.67016         4.73702
     2017.36071       -10.32338         4.77667
     2017.36344        -2.06960         4.78748
     2017.36618        -5.31782         4.74242
     2017.36892        -6.69104         4.73251
     2017.37166        -6.81026         4.82893
     2017.37440        -6.19648         4.79289
     2017.37713        -6.47370         4.85326
     2017.37885        -2.87797        10.65807
     2017.38893       -11.33772         8.12060
     2017.39082       -13.34080         4.84335
     2017.39356         5.44898         4.80730
     2017.39630        -0.23624         4.72801
     2017.39904        -3.64446         4.73972
     2017.40177        -7.33268         4.75324
     2017.40451        -6.91091         4.95058
     2017.40725        -5.40313         4.79739
     2017.40999        -4.17135         4.79198
     2017.41273        -5.56657         4.88660
     2017.41546        -4.08879         4.79739
     2017.41820        -5.84801         4.89291
     2017.42094        -6.11423         4.75144
     2017.42368        -5.10345         4.86317
     2017.42642        -5.42467         4.81992
     2017.42915        -4.74089         4.82262
     2017.43189         0.00989         4.82172
     2017.43463        -4.56733         4.94066
     2017.43737         1.06145         4.78027
     2017.44010        -1.95577         4.77036
     2017.44284        -0.22899         4.82442
     2017.44558         0.95879         4.83253
     2017.44912        -1.07562         9.74616
     2017.45191         5.79422         8.19269
     2017.45379         2.99713         4.86497
     2017.45556        -3.76007         9.79212
     2017.46475        -3.40575         4.95869
     2017.46748        -4.59497         4.96139
     2017.47022        -5.81119         4.94877
     2017.47296        -3.11641         4.89921
     2017.47570        -4.36063         4.79379
     2017.47843        -6.39985         4.77036
     2017.48117        -2.95007         4.79469
     2017.48391         2.49671         4.98752
     2017.48665         3.81149         4.92625
     2017.48939         0.54727         4.83794
     2017.49212         0.59305         4.76315
     2017.49486        -4.35617         4.85236
     2017.49760        -1.32139         4.76315
     2017.50034         2.20739         4.75774
     2017.50308         6.87117         4.83253
     2017.50581         1.19995         4.77937
     2017.50855         0.21473         4.84064
     2017.51129        -1.48150         4.90011
     2017.51403         1.91428         4.92895
     2017.51676        -1.11294         4.82352
     2017.51950        -0.62016         4.87398
     2017.52224         2.85262         4.81631
     2017.52498         4.31440         4.88209
     2017.52772         2.46018         4.99112
     2017.53045         3.56296         4.79289
     2017.53319         3.88674         4.88119
     2017.53593         7.78952         4.88570
     2017.53867         8.10230         5.00284
     2017.54141        10.61108         4.78478
     2017.54414         2.88186         4.85506
     2017.54688         7.75364         4.91633
     2017.54962         2.68042         4.78568
     2017.55139         5.87422         8.63332
     2017.56446        -6.98851        30.66942
     2017.56699        -8.50194         9.81735
     2017.56878         1.89488         4.91724
     2017.57152         2.90366         4.89651
     2017.57426         4.31244         4.80280
     2017.57700         1.37322         4.83163
     2017.57974         2.45400         4.79739
     2017.58247         5.20978         4.88029
     2017.58521        -1.44344         4.84425
     2017.58795         1.84434         4.91904
     2017.59069         5.25212         4.96589
     2017.59342         5.54190         4.82082
     2017.59616         8.36868         4.79198
     2017.59890         3.03846         4.87308
     2017.60164         5.19824         4.92084
     2017.60438         2.03902         4.86227
     2017.60711         3.47280         4.83704
     2017.60985         1.30658         5.04789
     2017.61259         5.76036         4.95418
     2017.61533         4.39014         4.91003
     2017.61807         7.38292         5.02086
     2017.62080         2.50869         4.82442
     2017.62354         4.24747         4.83343
     2017.62628        10.30825         5.03798
     2017.62902         7.77603         5.01636
     2017.63175         2.15781         4.87849
     2017.63449        -3.25441         4.84515
     2017.63723        -2.72063         4.86677
     2017.63997         8.18915         4.90642
     2017.64271        10.43893         4.85686
     2017.64544         6.96471         4.86317
     2017.64818         2.11749         4.93165
     2017.65092         2.71327         4.89561
     2017.65366         6.08605         4.82352
     2017.65639         4.53383         4.92174
     2017.65913         5.88461         4.96499
     2017.66187         4.90139         4.90282
     2017.66461         9.02217         4.93886
     2017.66735         5.46695         5.02807
     2017.67008         9.97173         4.80550
     2017.67282         7.27251         4.97761
     2017.67556         9.27329         4.81361
     2017.67830         7.19107         4.81902
     2017.68104         7.29485         4.83343
     2017.68377         9.12663         5.00284
     2017.68651        19.78341         5.15152
     2017.68925        15.42519         4.94607
     2017.69199         5.24297         4.94967
     2017.69472         7.02275         4.84245
     2017.69746         7.59753         5.02176
     2017.70020         9.26131         5.01455
     2017.70294        12.52409         5.03978
     2017.70568         6.08987         4.94156
     2017.70841         8.58965         4.78838
     2017.71115         8.53443         4.87579
     2017.71389         9.59121         5.00104
     2017.71663        13.22699         4.78478
     2017.71937         9.08777         4.88299
     2017.72210        10.04555         4.87128
     2017.72484         5.99133         4.87218
     2017.72758         9.25310         4.83343
     2017.73032         7.82488         4.83073
     2017.73305         7.95166         4.84695
     2017.73579         7.79544         4.85146
     2017.73853         3.50822         4.89831
     2017.74127         5.41100         4.80100
     2017.74401         6.31178         4.95688
     2017.74674         8.47356         4.94697
     2017.74948        11.20634         4.91543
     2017.75222         4.41712         4.87128
     2017.75496         6.96190         4.87939
     2017.75770         5.13168         4.93255
     2017.76009         6.31611         5.75164
     2017.76409         7.80517         8.43508
     2017.76591        14.14402         4.92625
     2017.76865        14.64580         4.91904
     2017.77138         4.09158         4.88119
     2017.77412         3.34036         5.34345
     2017.77686         4.96814         5.03257
     2017.77960         6.38692         5.04519
     2017.78234         2.27370         5.01275
     2017.78507         3.44548         4.97581
     2017.78781         0.21926         4.97761
     2017.79055         0.89804         4.98662
     2017.79329         9.40982         4.99923
     2017.79603         7.36660         5.00825
     2017.79876        13.79638         5.13350
     2017.80150        12.30516         5.10376
     2017.80424         4.91294         5.00374
     2017.80698         3.72872         5.05060
     2017.80971        -0.12350         5.10646
     2017.81245         0.84728         5.03618
     2017.81519         5.68506         5.03348
     2017.81793         2.82184         5.17855
     2017.82067        -2.03338         5.07222
     2017.82340         3.65940         4.99653
     2017.82614         3.48018         5.03257
     2017.82888         2.76296         4.97310
     2017.83162         7.61474         4.97400
     2017.83436         9.88551         5.11998
     2017.83709         4.79129         5.16323
     2017.83983        -5.00293         5.09745
     2017.84257         1.74885         4.97941
     2017.84531         1.98463         4.99653
     2017.84804        -6.12759         4.97310
     2017.85078         1.03619         4.99833
     2017.85352         5.16197         5.05781
     2017.85626         5.17775         5.13710
     2017.85900         1.37553         5.11818
     2017.86173         8.20331         5.08033
     2017.86447         3.85009         4.98392
     2017.86721         2.56887         5.02897
     2017.86995        -0.41935         4.94337
     2017.87269         7.73643         4.99833
     2017.87542         5.85621         4.91183
     2017.87816         8.60899         4.99563
     2017.88090         5.83577         4.97220
     2017.88364         6.58555         4.94247
     2017.88637         5.14133         5.03167
     2017.88911         9.37011         4.96860
     2017.89185         3.70789         5.05600
     2017.89459         3.72267         5.04068
     2017.89733         4.86945         4.99563
     2017.90006         4.95923         4.99923
     2017.90280         8.42101         5.08394
     2017.90554        11.05179         5.02987
     2017.90828         6.53157         4.96499
     2017.91102        -0.11565         5.09655
     2017.91375         2.01713         5.05690
     2017.91649         4.44591         5.01906
     2017.91923        10.68469         4.99112
     2017.92197         4.32447         5.00825
     2017.92470         3.25425         4.96409
     2017.92744        -4.57497         4.91724
     2017.93018        -5.32519         4.98482
     2017.93292        -3.27041         4.93165
     2017.93566        -1.76463         5.00104
     2017.93839        -0.09385         4.99833
     2017.94113        -2.27407         5.01636
     2017.94387         0.37970         4.97220
     2017.94661         0.84348         4.95148
     2017.94935         0.97626         4.96139
     2017.95208         3.41604         5.07312
     2017.95482         2.88582         4.97220
     2017.95756         1.98660         4.97040
     2017.96030         3.73838         4.99653
     2017.96303         5.45716         5.00464
     2017.96577         9.49894         5.11097
     2017.96851         2.30572         4.93976
     2017.97125        -0.99450         5.02627
     2017.97399         0.11628         4.98121
     2017.97672        -6.66694         4.96680
     2017.97946        -4.94116         5.02176
     2017.98220        -7.08538         5.00734
     2017.98494       -14.27160         4.96139
     2017.98767        -8.79082         5.01275
     2017.99041        -2.74404         5.00644
     2017.99315         4.19874         4.97040
     2017.99589         2.85452         5.05060
     2017.99863        -2.89070         5.01636
     2018.00136        -6.24292         5.01185
     2018.00410        -8.98914         4.98031
     2018.00684        -6.47736         4.94156
     2018.00958        -7.31858         5.05150
     2018.01232        -7.45280         4.96770
     2018.01505         0.11098         4.95238
     2018.01779         2.80776         4.98662
     2018.02053        -0.80046         5.03167
     2018.02327         7.84732         4.96770
     2018.02600         4.24510         4.98031
     2018.02874        -5.92112         4.98031
     2018.03148        -6.53534         4.98842
     2018.03422        -6.82456         4.98572
     2018.03696        -8.94878         4.92174
     2018.03969        -5.04700         4.96950
     2018.04243        -8.99022         5.03618
     2018.04517       -11.17144         5.09565
     2018.04762        -2.21495         5.67685
     2018.05065        -0.62589         7.97733
     2018.05338         1.29289         4.95328
     2018.05612        -2.50733         5.04879
     2018.05886       -11.21255         5.02266
     2018.06160        -2.13477         4.99383
     2018.06433         2.00601         5.19657
     2018.06707         0.54979         5.18486
     2018.06981        -3.37443         5.12268
     2018.07255        -6.65065         5.06772
     2018.07529       -14.88387         5.14611
     2018.07802        -7.31509         5.20288
     2018.08076        -5.65031         5.22180
     2018.08350        -5.03553         5.15152
     2018.08624        -7.18675         5.17224
     2018.08898       -12.00697         5.14521
     2018.09171        -5.62619         5.15783
     2018.09445         3.18359         5.15873
     2018.09719         4.20037         5.30831
     2018.09993        -0.02985         5.15692
     2018.10266        -3.13507         5.12449
     2018.10540        -7.92729         5.16233
     2018.10814        -1.50351         5.15062
     2018.11088        -2.43373         5.13530
     2018.11362        -2.74295         5.08213
     2018.11635        -0.41117         4.99203
     2018.11909        -4.92539         5.10196
     2018.12183         0.49439         5.12899
     2018.12457        -0.89583         5.05781
     2018.12731        -7.21005         5.06231
     2018.13004         7.54273         4.96770
     2018.13278         5.69351         4.98572
     2018.13552         0.95029         4.93346
     2018.13826        -0.22193         5.01275
     2018.14099        -7.27315         4.92895
     2018.14373        -4.02737         4.93436
     2018.14647        -0.36759         5.21640
     2018.14921         2.11819         5.14972
     2018.15195         4.35197         5.08123
     2018.15468         4.39075         5.00644
     2018.15742        -0.01348         5.02176
     2018.16016        -2.16170         4.99833
     2018.16290        -9.33892         5.18486
     2018.16564        -5.38214         5.18035
     2018.16837        -5.64636         5.09475
     2018.17111        -4.45958         5.05150
     2018.17385        -2.09780         5.02176
     2018.17659        -7.52902         5.02717
     2018.17932        -3.49424         4.96860
     2018.18206         2.40954         5.15332
     2018.18480         1.58732         5.06772
     2018.18754        -1.93590         5.03438
     2018.19028        -5.39912         4.94427
     2018.19301        -6.10734         5.01816
     2018.19575         7.21444         4.96589
     2018.19849         0.76222         4.97941
     2018.20123         3.29900         5.03798
     2018.20397         3.98278         5.01005
     2018.20670         1.34656         4.93075
     2018.20944        -1.55766         4.96139
     2018.21218        -2.67188         5.01726
     2018.21492       -14.53910         4.99112
     2018.21765         2.87468         4.93886
     2018.22039        -3.74954         5.02446
     2018.22313        -5.27776         4.96860
     2018.22587        -8.69498         4.92535
     2018.22861        -4.53020         4.98392
     2018.23134        -6.43542         4.93616
     2018.23408        -7.27064         4.92625
     2018.23682        -3.44586         4.93436
     2018.23956        -6.03008         4.94967
     2018.24230        -3.05430         4.99833
     2018.24503        -6.73652         4.97310
     2018.24777        -5.63174         4.91994
     2018.25051        -0.17196         4.91093
     2018.25325        -6.45518         4.91093
     2018.25598         0.06560         4.92174
     2018.25872        -3.15262         5.08664
     2018.26146        -6.24884         4.97400
     2018.26420         0.44094         5.05871
     2018.26694        -5.80429         4.80730
     2018.26967        -7.85251         4.84515
     2018.27241        -3.60873         4.93255
     2018.27515         3.27205         4.96319
     2018.27789         5.57883         5.11998
     2018.28062        -6.61539         5.11457
     2018.28336        -0.92861         4.89741
     2018.28610        -3.51283         4.78387
     2018.28884         2.16795         4.84335
     2018.29158         1.74873         4.97400
     2018.29431        -5.42149         4.92084
     2018.29705        -6.65571         4.83163
     2018.29979        -4.55993         4.83794
     2018.30253        -1.75615         4.86677
     2018.30527        -4.98837         4.83163
     2018.30800        -9.59459         4.85146
     2018.31074        -6.96281         4.87759
     2018.31348        -5.12603         4.88390
     2018.31622        -3.92125         4.88299
     2018.31895         0.09953         4.96319
     2018.32169        -1.92869         4.86317
     2018.32443        -3.98891         4.85055
     2018.32717        -9.36213         4.90192
     2018.32991        -2.90135         5.03077
     2018.33264        -0.55257         4.88390
     2018.33538        -4.60079         5.02897
     2018.33812        -3.11801         5.12088
     2018.34086        -3.81123         4.97130
     2018.34360        -5.36845         5.06141
     2018.34633        -6.38667         5.00284
     2018.34907        -5.47489         4.88390
     2018.35181         6.31689         5.03528
     2018.35455        -2.52333         4.90462
     2018.35728         4.13245         4.89651
     2018.36002         3.99523         4.89381
     2018.36276        -2.64199         4.90822
     2018.36550        -3.28721         4.84695
     2018.36824        -5.25443         4.99833
     2018.37097        -3.06365         4.85596
     2018.37371        -2.82088         4.95148
     2018.37645        -7.00910         5.00194
     2018.37919        -4.30332         4.89291
     2018.38193        -1.34454         4.91273
     2018.38466         0.18424         4.82623
     2018.38740        -2.09198         4.82262
     2018.39014         2.18680         5.01275
     2018.39253         7.08124         5.76426
     2018.39587        -2.24538         5.38760
     2018.39835         6.80014         4.93526
     2018.40109        -1.08908         4.91363
     2018.40383        -4.99330         4.90102
     2018.40657        -4.61552         4.94787
     2018.40930         6.91426         5.12539
     2018.41204         6.20704         4.97491
     2018.41478        -3.90818         4.92625
     2018.42299        -3.44884         4.93886
     2018.42573         5.05094         4.98482
     2018.42847         1.29372         4.86407
     2018.43121         2.12250         4.94337
     2018.43394         0.72928         5.02537
     2018.43668        -0.79794         4.89110
     2018.43942         4.48184         5.08033
     2018.44216         3.56962         4.86768
     2018.44490         0.04540         4.86858
     2018.44763        -2.03882         4.89741
     2018.45037         1.62296         4.84605
     2018.45311        -0.66326         4.82893
     2018.45585        -0.07948         4.88209
     2018.45859         4.57930         4.91543
     2018.46132        -5.05392         4.84785
     2018.46406         0.80286         4.93255
     2018.46680        -0.58736         4.95058
     2018.46954         0.05942         5.02897
     2018.47227         0.39320         5.11728
     2018.47501         4.24098         4.87398
     2018.47775         0.78976         4.92444
     2018.48049         3.55854         4.98842
     2018.48323         0.34931         4.91273
     2018.48596        -3.48391         4.93886
     2018.48842         3.01158         5.42365
     2018.49170        -0.79609         5.66153
     2018.49418         4.29443         5.03438
     2018.49692         4.69121         5.08304
     2018.49965         1.95299         4.90282
     2018.50239        -0.01523         4.86497
     2018.50513        -5.30945         4.92535
     2018.50787        -0.45667         4.92805
     2018.51060        -3.17989         5.11908
     2018.51334         1.34189         5.02176
     2018.51608        -1.88833         4.86137
     2018.51882        -1.44355         5.06321
     2018.52156         5.03623         4.88480
     2018.52429         0.77001         4.89561
     2018.52703         1.98979         4.89921
     2018.52977         0.69757         4.85146
     2018.53251         5.47135         4.91633
     2018.53525        -0.37187         4.90102
     2018.53798         1.69791         4.92985
     2018.54072         5.51069         4.86407
     2018.54346         5.62247         4.84245
     2018.54620        -1.35875         4.96680
     2018.54893         1.04503         4.94787
     2018.55167        -2.08919         4.92264
     2018.55441         1.19959         4.84605
     2018.55715         2.62037         4.98392
     2018.55989        -0.46485         5.09475
     2018.56262        -1.03707         4.91093
     2018.56519         1.36953         5.29569
     2018.56898         5.25938         9.15775
     2018.57084        -0.97073         4.99293
     2018.57357         4.07505         5.04879
     2018.57631         0.08683         5.08304
     2018.57905         5.19361         5.05781
     2018.58179         8.15839         5.07763
     2018.58453         8.51317         5.02987
     2018.58726         9.07495         4.91633
     2018.59000         3.40772         4.85866
     2018.59274         0.90750         4.86227
     2018.59548         5.01828         4.86227
     2018.59822         6.42206         4.88750
     2018.60095         4.52484         4.84965
     2018.60369         7.01762         5.18756
     2018.60643         8.89940         4.84695
     2018.60917         9.08118         4.86677
     2018.61190         5.66696         5.16233
     2018.61464         2.81174         4.79559
     2018.61738         4.78652         4.82082
     2018.62012         8.69930         4.82082
     2018.62286         9.04908         4.90913
     2018.62559         1.67286         5.08484
     2018.62833        -0.15036         4.90282
     2018.63107         7.16942         4.85326
     2018.63381         8.07220         5.16954
     2018.63655         7.93898         4.84605
     2018.63928         4.38776         5.10736
     2018.64202         4.18954         5.13980
     2018.64476        12.64632         5.38400
     2018.64750        -0.18490         4.92535
     2018.65023         8.75388         4.99022
     2018.65297         9.60066         4.87398
     2018.65571         7.12144         6.39141
     2018.65845         3.08522         4.93886
     2018.66119        14.64000         5.27587
     2018.66392         9.64078         4.91093
     2018.66666         7.61156         4.90822
     2018.66940         3.13734         4.90372
     2018.67214         2.22012         4.79198
     2018.67488         4.95290         4.89831
     2018.67756         5.11262         4.93165
     2018.68035         2.21146         4.92354
     2018.68309         0.09724         5.00014
     2018.68583         7.34402         4.98572
     2018.68856         4.59280         4.93255
     2018.69130         8.46858         4.91453
     2018.69404         6.70736         4.99293
     2018.69678         2.74913         4.97581
     2018.69952         7.03991         4.99203
     2018.70225         1.77969         5.09295
     2018.70499         4.63647         5.09205
     2018.70773         1.54925         4.97941
     2018.71047         1.54003         5.03708
     2018.71321         3.44981         4.92895
     2018.71594         8.08959         4.97761
     2018.71868        -2.43363         4.99203
     2018.72142        -0.91485         5.03798
     2018.72416         7.24193         5.09115
     2018.72689         2.39271         5.04249
     2018.72963         4.96849         5.03167
     2018.73237         2.64127         5.00374
     2018.73511        -0.37095         4.96139
     2018.73785         3.97783         4.96409
     2018.74058         1.71661         4.98121
     2018.74332         6.89139         5.02627
     2018.74606         7.10817         4.96499
     2018.74880         4.86395         4.89561
     2018.75154         4.40473         4.96589
     2018.75427         4.09851         4.91543
     2018.75701         1.64229         5.08934
     2018.75975         2.11907         4.81812
     2018.76249         3.09885         4.87939
     2018.76522        -0.24437         4.99473
     2018.76796         3.37141         4.82532
     2018.77070         9.54619         4.99653
     2018.77344         6.58397         4.81541
     2018.77618         7.60075         4.85055
     2018.77891         9.19453         4.90913
     2018.78165         2.42331         4.99653
     2018.78439         0.75509         4.89020
     2018.78713         1.04187         4.90552
     2018.78987        -3.46835         5.00554
     2018.79260        -1.51957         4.90822
     2018.79534         7.93921         4.88119
     2018.79808        -0.49601         4.81181
     2018.80082         4.55077         4.93526
     2018.80355         7.44655         4.93706
     2018.80629         7.74232         5.08394
     2018.80903         2.55910         4.99473
     2018.81177         4.93488         5.21099
     2018.81451         2.79766         5.00554
     2018.81724         7.66544         4.96139
     2018.81998         8.69022         4.90192
     2018.82272         9.04000         4.94066
     2018.82546         9.26378         4.91724
     2018.82820         0.88356         4.85776
     2018.83093         0.64434         4.90822
     2018.83367         5.90712         4.91273
     2018.83641        13.09990         5.06862
     2018.83915         7.30668         4.87038
     2018.84188        -2.76454         5.07402
     2018.84462         5.31024         4.92805
     2018.84736        -0.12598         4.88480
     2018.85010         5.08180         4.84695
     2018.85284         3.21858         4.90642
     2018.85557        -0.21364         4.88119
     2018.85831        -1.01786         4.95869
     2018.86105         1.44492         4.91453
     2018.86379         2.66670         5.03528
     2018.86653         6.95448         4.97941
     2018.86926        -3.69474         4.97040
     2018.87200         5.27504         4.91183
     2018.87474         3.90882         4.88029
     2018.87748         2.16760         5.08574
     2018.88021         5.60238         5.07673
     2018.88295         9.16116         5.02807
     2018.88569         6.13594         5.10286
     2018.88843         3.92272         5.06591
     2018.89117         0.28450         5.11638
     2018.89390         6.70628         5.03167
     2018.89664         1.03506         5.15602
     2018.89938         2.93784         5.07853
     2018.90212         2.57262         5.06321
     2018.90485         8.05540         5.07763
     2018.90759         8.36918         5.03438
     2018.91033         8.80796         5.00825
     2018.91307        10.68673         5.18666
     2018.91581         9.60951         5.11277
     2018.91854         4.25629         5.04159
     2018.92128         1.83807         4.97851
     2018.92402         2.04485         4.91543
     2018.92676         4.26663         4.97581
     2018.92950         5.55141         4.96680
     2018.93223         0.11919         5.12449
     2018.93497        -0.24903         5.01816
     2018.93771         1.74675         4.87669
     2018.94045         0.78753         4.97310
     2018.94318         5.92931         4.97671
     2018.94592         4.21909         5.00374
     2018.94866         7.78487         5.00915
     2018.95140        10.18365         5.03257
     2018.95414        12.36943         4.93886
     2018.95687         7.52221         4.94697
     2018.95961         9.30599         4.95959
     2018.96235         9.84677         4.96950
     2018.96509         4.33555         4.90372
     2018.96783         5.24233         4.95778
     2018.97056        11.40011         4.94247
     2018.97330         4.15189         4.91363
     2018.97604         0.98867         5.04789
     2018.97878         5.25145         4.87398
     2018.98151        -1.70677         4.84695
     2018.98425         5.60401         5.05871
     2018.98699        -1.27321         4.97130
     2018.98973        -2.93943         4.94427
     2018.99247        -9.37465         5.05150
     2018.99520         1.66113         4.94787
     2018.99794        -7.79709         4.94967
     2019.00068        -7.32431         5.08934
     2019.00342        -4.08453         4.98392
     2019.00616        -4.28975         5.10376
     2019.00889        -3.48697         5.01365
     2019.01163         1.00781         4.94337
     2019.01437         5.65259         4.95418
     2019.01711        11.85637         4.94066
     2019.01984        -0.56085         5.06772
     2019.02258        -2.95708         5.08754
     2019.02532         1.01670         5.13890
     2019.02806         1.10248         5.07493
     2019.03080         1.59326         4.95598
     2019.03353        -2.67296         4.91093
     2019.03627       -10.20518         5.00915
     2019.03901         2.36560         4.95058
     2019.04175         0.35538         4.95598
     2019.04449         4.75116         4.95148
     2019.04722        -0.12506         5.05871
     2019.04996       -14.55828         5.18035
     2019.05270        -5.58550         5.25965
     2019.05544        -1.05472         5.05420
     2019.05817        -3.42894         5.19477
     2019.06091       -13.03516         5.08213
     2019.06365         2.63662         5.08394
     2019.06639         2.09640         5.04879
     2019.06913        -0.87082         4.99563
     2019.07186         0.56496         5.13079
     2019.07460        -1.11726         4.96409
     2019.07734         2.02552         4.94156
     2019.08008         3.14830         4.91814
     2019.08282         3.79008         4.98301
     2019.08555         4.83086         4.95959
     2019.08829         5.94864         4.90822
     2019.09103         8.55142         4.92535
     2019.09377         4.51820         4.90913
     2019.09650         5.09598         4.92354
     2019.09924        -2.64024         4.92625
     2019.10198        -7.57046         4.86858
     2019.10472        -2.63368         4.92174
     2019.10746        -3.80490         4.95238
     2019.11019         7.27288         4.93616
     2019.11293         7.63466         5.06682
     2019.11567         7.45044         5.17314
     2019.11841        13.01922         4.96229
     2019.12115        17.29300         5.14701
     2019.12388         7.04678         5.12449
     2019.12662         6.52156         4.99383
     2019.12936        -2.66667         4.99473
     2019.13210         0.78311         4.99743
     2019.13483        -0.21911         5.04879
     2019.13757         4.39567         4.98932
     2019.14031         7.24845         4.98932
     2019.14305         3.83423         5.01726
     2019.14579         0.82601         5.03978
     2019.14852        -2.93221         4.97671
     2019.15126       -11.99443         4.96139
     2019.15400       -17.95865         4.99743
     2019.15674       -12.21887         5.03257
     2019.15948        -6.48109         4.94787
     2019.16221        -7.24631         5.05150
     2019.16495        -5.89653         4.93976
     2019.16769        -8.44575         4.94247
     2019.17043        -5.43597         4.96229
     2019.17316        -2.55319         4.97581
     2019.17590        -7.03941         4.93886
     2019.17864        -1.54063         4.86317
     2019.18138         0.10815         4.98482
     2019.18412        -9.17807         4.96229
     2019.18685        -1.82929         4.91363
     2019.18959        -4.11251         4.93796
     2019.19233         2.00627         4.90372
     2019.19507         1.44805         4.94517
     2019.19780        -6.49417         4.94787
     2019.20054        -8.96539         5.10106
     2019.20328       -11.46761         4.96680
     2019.20602        -9.62483         4.93706
     2019.20876        -6.66105         4.92444
     2019.21149       -10.59427         4.90282
     2019.21423        -3.56349         4.97491
     2019.21697        -3.76471         4.93436
     2019.21971        -3.95093         5.08033
     2019.22245        -1.51515         4.99022
     2019.22518        -5.46037         4.89381
     2019.22792        -4.30859         4.97040
     2019.23066        -4.14281         4.98121
     2019.23340        -7.12003         4.94066
     2019.23613        -6.08526         5.03618
     2019.23887        -4.22348         4.92715
     2019.24161        -9.59470         5.01185
     2019.24435        -8.34892         5.04970
     2019.24709        -7.74314         4.98842
     2019.24982        -2.28136         4.97671
     2019.25256        -1.44258         5.02446
     2019.25530        -6.68080         5.01455
     2019.25804        -0.21002         4.98752
     2019.26078        -3.68124         5.02446
     2019.26351        -0.64046         5.10466
     2019.26625        -3.20668         5.03708
     2019.26899        -6.09590         5.06682
     2019.27173        -1.19812         5.09745
     2019.27446        -7.03834         5.01816
     2019.27720        -3.02956         5.07583
     2019.27994        -1.87578         4.96860
     2019.28268        -5.04100         5.08304
     2019.28542        -0.71322         4.92535
     2019.28815        -1.74744         4.93976
     2019.29089        -2.63966         5.01275
     2019.29363        -4.22088         4.99563
     2019.29637        -6.41010         5.12178
     2019.29911         0.26868         4.98842
     2019.30184        -4.36754         4.97040
     2019.30458        -8.34276         4.95598
     2019.30732        -4.41898         5.01816
     2019.31006        -3.81820         5.08304
     2019.31279        -6.52142         5.05600
     2019.31553        -0.50964         4.94427
     2019.31827        -4.37286         4.94066
     2019.32101        -0.70808         4.93436
     2019.32375       -13.53830         4.82623
     2019.32648        -6.69052         4.87759
     2019.32922        -6.98674         4.91363
     2019.33196        -4.11496         5.02807
     2019.33470        -2.13018         5.05510
     2019.33744        -2.31840         4.88660
     2019.34017        -6.94762         4.86317
     2019.34291        -0.23684         4.86858
     2019.34565        -2.99307         5.04159
     2019.34839        -9.67329         5.00554
     2019.35112        -5.06551         4.87759
     2019.35386        -2.69073         4.81541
     2019.35660        -2.73395         4.83884
     2019.35934         1.96283         4.90642
     2019.36208        -1.71039         5.04249
     2019.36481        -1.56261         4.95869
     2019.36755        -3.95583         4.93075
     2019.37029        -3.25105         4.97761
     2019.37303         1.21173         4.93976
     2019.37577         2.55951         5.15963
     2019.37850         1.52129         4.99383
     2019.38124         3.01607         4.96589
     2019.38398         0.25885         4.93796
     2019.38672        -0.82337         4.96499
     2019.38945        -5.61959         4.92264
     2019.39219        -1.18781         5.04789
     2019.39493        -8.59803         5.01726
     2019.39767        -2.20025         5.02176
     2019.40041        -2.46147         4.97671
     2019.40314         0.60631         4.95058
     2019.40588         0.17909         4.96860
     2019.40862        -7.79113         5.00284
     2019.41136        -5.87635         4.90282
     2019.41410        -6.44857         4.94697
     2019.41683         5.44821         4.91904
     2019.41957        -3.84401         5.06682
     2019.42231        -7.35023         4.94337
     2019.42505         0.27155         4.93255
     2019.42778         2.44533         5.18936
     2019.43052         2.87611         4.99383
     2019.43326        -5.53611         4.96049
     2019.43600       -10.20833         4.99743
     2019.43874        -9.58555         5.10827
     2019.44147        -9.01977         5.10106
     2019.44421        -5.26199         5.10376
     2019.44695        -5.14921         5.10106
     2019.44969         0.11557         5.17855
     2019.45243        -1.85966         5.08304
     2019.45516        -0.88588         5.08033
     2019.45790        -5.70110         5.12719
     2019.46064        -7.43932         5.05961
     2019.46338        -3.04754         5.20468
     2019.46611         1.50224         5.20108
     2019.46885         6.09702         5.18125
     2019.47159        -1.91620         5.14791
     2019.47433         3.38558         5.14071
     2019.47707        -0.86164         5.07853
     2019.47980         2.38714         4.97220
     2019.48254        -1.73508         5.14431
     2019.48528        -0.17530         5.18125
     2019.48802        -0.84252         5.02627
     2019.49076       -10.00874         4.98662
     2019.49315        -7.18231         5.59395
     2019.49503        -4.70740        14.46606
     2019.49914        -2.95923         5.66514
     2019.50171         1.54438         4.93346
     2019.50444        -3.07684         5.00014
     2019.50718        -5.26506         4.98752
     2019.50992        -2.19628         5.00734
     2019.51266        -3.83450         5.02086
     2019.51540        -3.66372         5.06862
     2019.51813        -5.59094         4.97220
     2019.52087        -4.17316         4.93706
     2019.52361        -9.53938         4.97400
     2019.52635        -7.21860         4.97941
     2019.52908        -4.81482         5.03618
     2019.53182        -4.12104         5.19747
     2019.53456        -5.91426         5.08934
     2019.53730        -1.16348         5.20378
     2019.54004         2.73930         5.01005
     2019.54277         6.10508         5.12989
     2019.54551        -3.43414         5.40833
     2019.54825         0.32664         4.96139
     2019.55099        -2.56558         4.94066
     2019.55373         0.70120         5.11367
     2019.55646         4.80398         5.10286
     2019.55920        -9.15525         5.29569
     2019.56194         1.36353         7.77999
     2019.56468        -6.87469         5.08484
     2019.56741        -2.80791         4.96950
     2019.57015        -1.31913         4.94967
     2019.57289        -5.88335         4.98301
     2019.57563         4.73343         4.97040
     2019.57837        -5.32579         5.00464
     2019.58110         1.76699         4.96499
     2019.58384        -2.98923         5.04879
     2019.58658         1.53655         4.98211
     2019.58926         1.03927         5.00374
     2019.59206         5.85311         4.98121
     2019.59479         2.44689         4.96680
     2019.59753         2.82667         5.13800
     2019.60027         8.68245         5.19207
     2019.60301        -4.01077         5.02266
     2019.60574         9.38701         5.27587
     2019.60848         1.55979         5.19387
     2019.61122        -3.00443         4.97400
     2019.61396        -1.22765         5.08664
     2019.61670         1.50213         4.94517
     2019.61943         0.26891         5.00194
     2019.62217         2.96069         5.05330
     2019.62491         3.33047         4.93436
     2019.62765         8.03625         4.97761
     2019.63039         3.81703         4.92715
     2019.63312        -0.71419         4.95418
     2019.63586         2.87659         5.05420
     2019.63860        -4.25363         5.12178
     2019.64407         1.41493         5.03348
     2019.64681        -4.78629         5.03708
     2019.64955        -0.00551         4.90822
     2019.65229         6.63827         4.97851
     2019.65503         1.78805         5.13710
     2019.65776        -5.30217         5.08664
     2019.66050         7.77961         5.15783
     2019.66324         0.36739         5.02717
     2019.66598         1.15517         5.17134
     2019.66872         0.52494         5.15692
     2019.67145        -1.64128         5.19207
     2019.67419        -2.66350         5.07853
     2019.67693         2.89128         5.23352
     2019.67967         1.74706         5.42635
     2019.68240         6.60684         5.19747
     2019.68514         2.58662         5.12989
     2019.68788         3.40840         5.12989
     2019.69062         2.63418         5.16233
     2019.69336        -0.69404         5.03708
     2019.69609        -0.58026         5.01636
     2019.69883        -6.34348         4.96860
     2019.70157        -1.77670         5.10286
     2019.70431        -4.99192         5.03077
     2019.70705         3.45786         5.00554
     2019.70978        -0.12436         4.94787
     2019.71252         0.96642         4.86677
     2019.71526         1.96620         4.96139
     2019.71800        -0.91402         4.99203
     2019.72073         0.22076         5.10827
     2019.72347        -0.08746         4.90282
     2019.72621        -1.31468         4.94427
     2019.72895        -2.45090         5.05420
     2019.73169        -0.66912         5.09835
     2019.73442         2.56566         4.94967
     2019.73716         2.41144         4.97400
     2019.73990         6.22722         5.10917
     2019.74264         3.81000         5.00104
     2019.74538         2.15378         4.93255
     2019.74811         0.55256         5.06501
     2019.75085         4.17834         5.04519
     2019.75359        -0.91588         5.15242
     2019.75633        -0.32310         4.98482
     2019.75906        -2.14032         4.81361
     2019.76180        -1.62254         4.98842
     2019.76454         6.04124         5.02627
     2019.76728         4.64802         5.18125
     2019.77002         2.57480         5.05781
     2019.77275        -2.67242         5.02987
     2019.77549        -1.62665         5.07763
     2019.77823        -2.57887         5.11187
     2019.78097         3.77191         5.09024
     2019.78371         3.61169         4.93976
     2019.78644         0.11347         5.11097
     2019.78918         6.57925         5.11367
     2019.79192         7.02103         5.05330
     2019.79466         4.49681         5.03438
     2019.79739         2.03659         5.10556
     2019.80013         8.46937         5.05600
     2019.80287         2.39515         4.98572
     2019.80561         3.03793         5.12268
     2019.80835        -3.55029         4.90642
     2019.81108        -2.98451         4.98482
     2019.81382         3.81527         5.01545
     2019.81656         8.91705         5.10376
     2019.81930         2.11283         5.28668
     2019.82203        -1.59039         4.97400
     2019.82477        -1.67161         5.06231
     2019.82751        -0.76983         5.14161
     2019.83025         2.09695         5.17945
     2019.83299         0.65173         5.16053
     2019.83572         2.08051         4.98482
     2019.83846         2.57029         5.03798
     2019.84120         3.24007         5.05240
     2019.84394         0.61785         5.21459
     2019.84668        -1.43637         5.10286
     2019.84941         0.71341         5.15783
     2019.85215         0.22519         5.09024
     2019.85489         1.67697         5.13530
     2019.85763         0.35975         5.03528
     2019.86036        -0.04147         4.99203
     2019.86310        -1.28269         5.19117
     2019.86584         9.39809         5.11367
     2019.86858         3.80287         5.12088
     2019.87132         4.72365         5.14161
     2019.87405         5.19043         4.99203
     2019.87679         6.83721         5.15332
     2019.87953        11.28799         5.19837
     2019.88227        11.85977         5.10286
     2019.88501        10.26454         5.02356
     2019.88774         8.09832         5.12088
     2019.89048        13.21910         5.06051
     2019.89322        12.27988         5.06862
     2019.89596         3.65566         5.20468
     2019.89869         8.45144         5.06321
     2019.90143         7.99422         5.02086
     2019.90417        10.24200         5.02266
     2019.90691         6.71578         5.02446
     2019.90965         4.42756         5.04970
     2019.91238         5.31834         5.14071
     2019.91512         8.19212         5.08664
     2019.91786        12.94890         5.01095
     2019.92060         7.23168         5.02086
     2019.92334        10.28646         5.04068
     2019.92607         8.57724         4.99383
     2019.92881         5.54602         5.06682
     2019.93155         6.89180         5.04789
     2019.93429         5.71458         4.99743
     2019.93702         3.75236         4.96589
     2019.93976         3.29214         4.96589
     2019.94250         1.84892         5.02627
     2019.94524        -2.03230         5.09024
     2019.94798        -1.74852         5.09205
     2019.95071         1.87226         5.22451
     2019.95345         6.77304         5.00825
     2019.95619         6.35282         4.96229
     2019.95893         1.34360         5.07493
     2019.96167         4.49038         5.09024
     2019.96440         6.61416         5.11457
     2019.96714        -0.82206         5.13890
     2019.96988        -0.49928         5.05330
     2019.97262         3.68150         5.11547
     2019.97535         2.39828         5.01185
     2019.97809        -1.25394         5.01455
     2019.98083         1.47684         5.05330
     2019.98357        -2.02038         5.08033
     2019.98631        -1.44860         5.01636
     2019.98904        -4.18882         5.16323
     2019.99178         0.53995         5.13710
     2019.99452         0.02273         4.97040
     2019.99726         4.55651         5.12539
     2020.00000         9.33529         5.33985
     2020.00273         7.04707         5.11728
     2020.00547        -6.97815         5.32363
     2020.00821        -0.44637         5.22901
     2020.01095         2.54141         5.26325
     2020.01368        -1.45581         5.21189
     2020.01642         4.10597         5.22180
     2020.01916        -1.26525         5.23172
     2020.02190         1.57653         5.15602
     2020.02464        -2.56269         5.16594
     2020.02737         7.34509         5.14071
     2020.03011        -1.65913         5.00464
     2020.03285        -4.34435         5.04699
     2020.03559        -4.04257         4.98662
     2020.03833        -3.64479         4.89291
     2020.04106         2.85899         5.03978
     2020.04380         0.80677         5.05420
     2020.04654        -5.68945         4.96409
     2020.04928        -6.03867         4.87849
     2020.05201         1.06711         4.92174
     2020.05475         2.26089         4.90011
     2020.05749         0.60767         4.91273
     2020.06023         1.63745         4.88029
     2020.06297        -0.60977         4.90913
     2020.06570         6.03001         4.97761
     2020.06844         1.80979         5.05420
     2020.07118         2.58957         4.93075
     2020.07392         3.04335         5.00644
     2020.07666        -0.32487         4.93165
     2020.07939         0.91591         5.02717
     2020.08213         2.30769         5.00104
     2020.08487         3.78747         4.92715
     2020.08761         0.31125         5.00644
     2020.09034        -0.00997         4.96770
     2020.09308        -3.72419         4.96680
     2020.09582       -14.36741         5.04609
     2020.09856         1.59936         4.87939
     2020.10130         1.02614         4.95148
     2020.10403         0.36492         5.02176
     2020.10677        -6.08030         4.97220
     2020.10951        -4.98852         4.98662
     2020.11225        -6.39774         5.00464
     2020.11498         2.60604         5.08844
     2020.11772        -1.92318         5.10736
     2020.12046         1.49460         5.10286
     2020.12320        -3.88762         4.97851
     2020.12594       -16.25784         4.97491
     2020.12867        -6.82806         4.97400
     2020.13141        -6.79128         4.88660
     2020.13415        -7.62850         4.91003
     2020.13689        -2.39972         5.03077
     2020.13963        -1.06494         5.12629
     2020.14236        -4.69716         4.94427
     2020.14510         2.48162         4.92625
     2020.14784        -6.39260         4.93976
     2020.15058        -5.72082         4.96589
     2020.15331        -9.04504         5.05510
     2020.15605        -6.77526         5.05871
     2020.15879        -2.82748         5.03348
     2020.16153         2.64230         4.96860
     2020.16427        -4.81392         4.92985
     2020.16700         0.33886         5.04519
     2020.16974         1.59164         5.06952
     2020.17248        -1.31258         4.94787
     2020.17522        -2.83980         4.96589
     2020.17796        -0.25402         4.91904
     2020.18069        -5.69124         4.91183
     2020.18343         2.67554         4.97130
     2020.18617        -2.74368         5.03348
     2020.18891        -6.25290         5.01636
     2020.19164        -3.81912         5.02356
     2020.19438         0.14266         5.12449
     2020.19712        -1.93256         5.00554
     2020.19986        -5.91678         5.02897
     2020.20260        -1.49300         5.09565
     2020.20533        -2.39922         5.05240
     2020.20807        -0.77145         4.99563
     2020.21081        -8.27067         5.14431
     2020.21355        -5.26489         5.52367
     2020.21629        -1.30111         5.40292
     2020.21902        -7.67533         5.26596
     2020.22176        -6.76855         5.06862
     2020.22450         0.10823         5.19297
     2020.22724        -1.59199         5.18666
     2020.22997         0.63379         5.14881
     2020.23271        -1.87043         5.04249
     2020.23545        -0.72565         5.16954
     2020.23819        -3.92587         5.18486
     2020.24093        -1.44009         5.20288
     2020.24366        -3.56131         5.24523
     2020.24640         0.62047         5.12719
     2020.24914        -8.27475         5.07763
     2020.25188        -5.85197         5.07943
     2020.25462        -5.79019         5.09745
     2020.25735         0.49759         5.10646
     2020.26009         3.15737         5.18306
     2020.26283         3.00515         5.06952
     2020.26557        -3.23907         5.11097
     2020.26830        -0.19429         5.09115
     2020.27104        -5.50251         5.05690
     2020.27378        -2.94573         4.99022
     2020.27652         4.29605         5.04339
     2020.27926        -4.09317         5.11728
     2020.28199        -3.09739         5.10556
     2020.28473        -6.17461         4.98752
     2020.28747        -0.55783         5.13710
     2020.29021        -0.24705         5.08484
     2020.29295        -2.19427         5.09745
     2020.29568         5.23351         5.03077
     2020.29842         3.87329         4.97130
     2020.30116        -1.65693         4.97400
     2020.30390         3.66685         5.04068
     2020.30663         0.14163         5.05240
     2020.30937        -2.98659         5.20739
     2020.31211        -8.33881         5.14791
     2020.31485        -6.51704         5.04609
     2020.31759        -6.20326         4.97761
     2020.32032         1.25852         5.07132
     2020.32306         0.84030         5.08033
     2020.32580        -7.34892         4.99923
     2020.32854        -3.82014         5.03708
     2020.33128        -2.51636         4.99833
     2020.33401        -1.77658         4.98211
     2020.33675         0.34320         5.07493
     2020.33949        -3.10602         4.89561
     2020.34223        -9.44124         5.18035
     2020.34496        -5.26346         5.14161
     2020.34770        -5.81368         4.97941
     2020.35044        -4.42890         5.06141
     2020.35318        -5.11612         5.10917
     2020.35592        -5.74834         5.18035
     2020.35865        -2.97756         5.02537
     2020.36139        -1.10178         4.93526
     2020.36413        -0.03700         5.03257
     2020.36687         6.62678         5.09205
     2020.36961         4.30656         5.00644
     2020.37234         0.25634         5.03438
     2020.37508        -0.76988         5.01726
     2020.37782         6.33590         4.97220
     2020.38056        -1.09032         4.97671
     2020.38329         4.84146         4.92625
     2020.38603         3.38124         5.05420
     2020.38877         1.16602         5.09475
     2020.39151        -1.13320         5.01906
     2020.39425        -5.90242         5.06501
     2020.39698        -4.75264         4.97941
     2020.39972        -7.20186         4.99833
     2020.40246        -5.42308         5.13260
     2020.40520        -6.49930         5.04068
     2020.40794         0.90648         5.14701
     2020.41067        -0.15274         5.29840
     2020.41341         3.57804         5.10646
     2020.41615        -3.43518         5.10286
     2020.41889        -2.76540         5.05871
     2020.42162        -5.96163         5.10556
     2020.42436        -8.76385         5.28488
     2020.42710        -3.06007         5.27767
     2020.42984         3.26371         5.18666
     2020.43258         2.89149         5.09745
     2020.43531        -2.17773         4.98842
     2020.43805        -3.70895         5.15422
     2020.44079        -4.33517         5.21820
     2020.44353        -2.99139         5.10196
     2020.44626        -9.25361         5.06862
     2020.44900         1.17317         5.05330
     2020.45174         0.59295         4.91183
     2020.45448        -0.51127         5.01185
     2020.45722        -0.01949         5.02266
     2020.45995        -2.21471         4.96589
     2020.46269       -12.06493         5.02537
     2020.46543        -7.24915         4.98121
     2020.46817        -2.31737         5.10736
     2020.47091        -3.18959         5.11187
     2020.47364        -7.11281         5.04609
     2020.47638        -1.11103         4.98301
     2020.47912        -2.66425         5.08123
     2020.48186        -5.35147         5.16233
     2020.48459        -1.46469         5.00734
     2020.48733        -1.52891         5.34525
     2020.49007         0.83687         5.11638
     2020.49281         5.33765         5.11187
     2020.49555         1.65843         5.07673
     2020.49828        -0.91279         5.01095
     2020.50102        -8.36701         5.03438
     2020.50376        -7.34223         5.01095
     2020.50650         0.69055         4.89020
     2020.50924        -9.73467         4.93796
     2020.51197        -7.02089         4.93706
     2020.51471         1.44989         4.99022
     2020.51745         2.08167         4.98392
     2020.52019         1.21245         5.06231
     2020.52292         4.44023         5.01906
     2020.52566        -2.99899         5.05781
     2020.52840         1.12879         5.12268
     2020.53114        -1.92844         5.11367
     2020.53388        -1.24066         5.11007
     2020.53661        -3.25988         5.02717
     2020.53935         2.78990         5.06862
     2020.54209         0.39468         5.23352
     2020.54483         0.48346         5.15062
     2020.54757         0.89824         5.07222
     2020.55030        -0.57998         4.98752
     2020.55304         0.67280         5.13530
     2020.55578         6.75058         5.14611
     2020.55852         5.81436         5.16413
     2020.56125         4.75114         5.17855
     2020.56399         5.37792         5.16684
     2020.56673        -0.60230         5.06051
     2020.56947         3.38248         5.05240
     2020.57221         7.69526         5.25244
     2020.57494         2.09504         5.04339
     2020.57768        10.66482         5.23352
     2020.58042         2.27560         5.12809
     2020.58316         1.45738         4.94697
     2020.58590         2.67416         5.15512
     2020.58863         2.29794         5.07583
     2020.59137         8.28572         5.01185
     2020.59411        14.08950         5.06682
     2020.59685        11.74228         5.29749
     2020.59958         5.66106         5.22451
     2020.60232         4.02184         5.03528
     2020.60506         6.66962         5.02266
     2020.60780         3.07740         5.03798
     2020.61054         0.87118         5.02807
     2020.61327         5.43496         5.15692
     2020.61601         1.83774         5.17314
     2020.61875         0.85052         5.08213
     2020.62109        -4.15111         6.32564
     2020.62696        -1.53714         5.32813
     2020.62970        -1.22936         5.21640
     2020.63244        11.33042         5.22270
     2020.63518         8.31220         5.24974
     2020.63791         0.84797         5.26596
     2020.64065        -3.55225         5.18936
     2020.64339        -5.31847         5.16503
     2020.64613         2.43931         5.25965
     2020.64887         6.85809         5.13350
     2020.65160         1.59687         5.20018
     2020.65434         1.47065         5.14791
     2020.65708         3.16043         5.08484
     2020.65982         4.44121         5.16143
     2020.66256        -1.94801         5.07222
     2020.66529        10.22577         5.23622
     2020.66803         4.36055         5.07132
     2020.67077         3.96233         5.09295
     2020.67351         5.80311         5.08304
     2020.67624         1.79889         5.05060
     2020.67898         2.18567         5.05871
     2020.68172         1.36245         5.05871
     2020.68446         3.47023         5.12719
     2020.68720        -1.29699         5.08844
     2020.68993         3.14979         5.00014
     2020.69267         0.06857         5.14431
     2020.69541         1.44135         5.30200
     2020.69815         2.07113         5.14791
     2020.70089         4.25491         4.96409
     2020.70362         0.22269         5.03438
     2020.70636        -1.41453         5.35156
     2020.70910        -2.40575         5.35426
     2020.71184         0.77603         5.22000
     2020.71457        -1.40419         5.25334
     2020.71731         2.01659         5.28308
     2020.72005        -0.69963         5.26506
     2020.72279        -1.61685         4.99022
     2020.72553         6.20493         5.23712
     2020.72826         6.30871         5.37319
     2020.73100         0.68249         5.38850
     2020.73374        10.78627         5.10466
     2020.73648         4.31505         5.16323
     2020.73921        -1.61317         5.15692
     2020.74195         0.27061         5.03798
     2020.74469         2.88839         5.12358
     2020.74743         4.69616         5.09475
     2020.75017         0.70894         5.10556
     2020.75290         1.52272         5.13440
     2020.75564         0.11550         5.16413
     2020.75838         0.63928         5.01996
     2020.76112         2.71106         4.98301
     2020.76386         0.19684         4.95869
     2020.76659         4.88962         5.01365
     2020.76933         5.05240         5.09115
     2020.77207         7.41318         4.98482
     2020.77481         9.04396         5.00915
     2020.77754         5.28274         4.96950
     2020.78028        10.04852         5.06411
     2020.78302         0.19430         5.04789
     2020.78576         6.11508         5.09024
     2020.78850        -3.70014         5.02897
     2020.79123         1.70264         5.02266
     2020.79397         5.22442         5.11728
     2020.79671         5.44820         5.14161
     2020.79945         0.85398         5.06501
     2020.80219         5.49576         5.16233
     2020.80492         5.59654         5.06772
     2020.80766        -4.11568         5.09295
     2020.81040         0.63010         5.19387
     2020.81314         3.01088         5.11638
     2020.81587        -6.69434         5.06952
     2020.81861         0.19144         5.08844
     2020.82135        -0.71978         4.98482
     2020.82409        -0.44900         4.98752
     2020.82683         0.69678         5.15422
     2020.82956        -5.85744         5.29569
     2020.83230         3.73434         5.19837
     2020.83504        -0.56588         5.12629
     2020.83778         0.54190         4.85416
     2020.84052         4.80768         4.84695
     2020.84325        -1.68354         5.23712
     2020.84599         7.46924         5.13350
     2020.84873         5.69202         4.85416
     2020.85147        -0.19320         4.89110
     2020.85694         7.02835         5.02176
     2020.85968         8.99713         5.01996
     2020.86242        10.92391         5.04970
     2020.86516         3.16669         5.09926
     2020.86789         8.41847         5.14791
     2020.87063         6.42825         5.04429
     2020.87337        12.85703         5.04159
     2020.87611         8.43681         5.16864
     2020.87885         7.53859         5.17855
     2020.88158         4.80237         5.12449
     2020.88432         7.09215         4.97851
     2020.88706        -0.32107         5.16864
     2020.88980         0.34671         5.06321
     2020.89253         3.15349         4.95148
     2020.89527         9.39627         5.16503
     2020.89801         3.67705         5.10736
     2020.90075         4.38683         4.94967
     2020.90349         4.85661         5.01185
     2020.90622         2.14839         4.94787
     2020.90896        -3.29983         5.11998
     2020.91170         2.60495         5.12358
     2020.91444         2.27073         4.95058
     2020.91718        -1.34849         4.91093
     2020.91991        -3.41571         5.01005
     2020.92168         0.62208         9.57676
     2020.92488        -0.08167         6.34186
     2020.93765       -26.66670       140.41920
     2020.93908        -3.25925         5.08844
     2020.94182        -3.17247         4.93796
     2020.94455        -5.79169         4.91543
     2020.94729       -12.48991         4.96319
     2020.95003       -13.37913         5.04879
     2020.95277       -11.84535         4.98211
     2020.95551        -8.75657         5.01275
     2020.95824        -5.56279         4.95778
     2020.96098        -4.99702         5.00104
     2020.96372        -4.82124         5.02987
     2020.96646        -0.06946         5.03077
     2020.96919         1.25732         5.08934
     2020.97193        -4.65890         4.91633
     2020.97467        -0.18912         5.06141
     2020.97741        -7.47134         5.09475
     2020.98015        -7.73856         5.13710
     2020.98288        -4.53378         5.06411
     2020.98562         5.98500         4.90732
     2020.98836         1.62178         4.89921
     2020.99110         0.77256         4.86587
     2020.99384        -3.00766         4.85055
     2020.99657        -2.82188         4.91183
     2020.99931        -0.70210         4.89110
     2021.00205        -2.47732         4.84245
     2021.00479        11.57946         4.89741
     2021.00752        10.11524         4.86227
     2021.01026         3.33402         4.88750
     2021.01300         6.60680         4.90822
     2021.01574         3.00458         4.90102
     2021.01848       -12.17664         4.85326
     2021.02121        -4.04186         4.83794
     2021.02395       -12.71308         4.84965
     2021.02669        -3.04530         4.86227
     2021.02834        -7.88662        11.01219
     2021.04038        -3.36840         5.00464
     2021.04312        -2.45262         4.95598
     2021.04585        -1.37084         5.00734
     2021.04859        -5.14506         4.88570
     2021.05133        -2.82428         4.93526
     2021.05407         2.19050         5.22000
     2021.05681        -2.24472         5.09926
     2021.05954        -5.19194         4.98301
     2021.06776        -4.93860         5.00014
     2021.07049        -9.46783         4.99563
     2021.07323        -7.67205         5.09475
     2021.07597        -8.15927         5.12358
     2021.07871        -3.68849         4.86497
     2021.08145        -6.90571         4.95598
     2021.08418       -12.16693         5.01906
     2021.08692        -7.89015         4.99293
     2021.08966        -7.09537         5.01095
     2021.09240       -10.27159         4.88570
     2021.09514        -3.33681         4.94427
     2021.09787        -1.43303         5.06772
     2021.10061        -5.15925         4.97310
     2021.10335        -3.60147         5.00644
     2021.10609        -6.22569         4.95508
     2021.10882        -2.41691         4.96770
     2021.11156        -6.62013         5.01906
     2021.11430        -9.33835         5.01726
     2021.11704        -5.98357         5.04339
     2021.11978        -9.09779         5.00464
     2021.12251       -11.58701         5.04429
     2021.12525        -6.23123         5.07763
     2021.12799         1.37855         5.02446
     2021.13073        -0.92467         5.05240
     2021.13347        -8.12889         5.11998
     2021.13620        -8.99011         5.04879
     2021.13894        -7.79733         5.07132
     2021.14168        -8.90755         5.04519
     2021.14442        -2.91677         5.05871
     2021.14715        -7.25699         5.12449
     2021.14989        -5.52521         4.87398
     2021.15166        -1.73742        10.88153
     2021.16358        -4.13931         5.02987
     2021.16615        -6.43871         5.63270
     2021.16974        -1.57906         6.73923
     2021.17175        -5.50102         5.05600
     2021.17480       -10.51392         5.44527
     2021.17727        -2.76642         5.07042
     2021.18001        -9.87064         5.05510
     2021.18275        -8.63286         5.22361
     2021.18548       -10.16208         5.10466
     2021.18822        -4.46930         5.02627
     2021.19079        -4.73569         5.46420
     2021.19370        -7.90074         5.00644
     2021.19644       -10.98196         4.89651
     2021.19917        -8.67118         4.91093
     2021.20191        -6.27040         4.89921
     2021.20465        -2.64762         4.91183
     2021.20739        -5.38184         4.98121
     2021.21013        -8.44706         5.14431
     2021.21286        -8.10028         5.15242
     2021.21560        -4.16850         4.95148
     2021.21834        -7.60272         4.91633
     2021.22108        -9.86694         5.01185
     2021.22381        -9.07516         4.92444
     2021.22655        -1.62538         4.93255
     2021.22929         0.46940         4.98301
     2021.23203         0.22318         4.91003
     2021.23477        -7.96504         4.95148
     2021.23750        -8.68626         5.03348
     2021.24024        -1.56748         4.99203
     2021.24298        -3.65870         4.90192
     2021.24572        -8.26592         4.86677
     2021.25119        -3.49936         4.98392
     2021.25393        -4.20158         4.98031
     2021.25667        -3.38480         4.92715
     2021.25941        -8.81102         4.92444
     2021.26214        -0.59524         4.87128
     2021.26488        -0.58946         4.90011
     2021.26762         0.11832         4.96860
     2021.27036         0.48910         4.94427
     2021.27310         3.24088         4.93165
     2021.27583        -3.20534         4.98031
     2021.27857        -4.78656         5.04879
     2021.28131        -4.72678         5.06051
     2021.28405        -2.77300         5.07673
     2021.28679         0.11077         4.98842
     2021.28952        -2.07245         5.06051
     2021.29226        -6.12067         5.08304
     2021.29500        -0.71689         5.02086
     2021.29774         0.24989         5.10827
     2021.30047        -3.50633         4.96229
     2021.30321         1.36545         4.97400
     2021.30595         5.30023         5.14431
     2021.30869        12.44201         5.15062
     2021.31143         4.22179         4.84335
     2021.31416         4.47057         4.84515
     2021.31690         7.81135         4.91363
     2021.31964         2.46513         4.98211
     2021.32238         0.74191         5.05510
     2021.32512        -8.57731         4.92174
     2021.32785        -4.05553         5.02537
     2021.33059        -1.86275         5.04699
     2021.33333         7.45903         4.97310
     2021.33607        -5.31219         4.90011
     2021.33880        -5.19941         4.94427
     2021.34154        -4.93363         4.89200
     2021.34428        -5.37985         5.22721
     2021.34702        -5.13607         5.05240
     2021.34976        -3.56229         4.96589
     2021.35249        -6.46951         4.95418
     2021.35523        -4.12773         4.96770
     2021.35797       -10.12095         5.03257
     2021.36071        -3.64417         5.01906
     2021.36344        -4.05939         5.10646
     2021.36618        -8.79261         4.99923
     2021.36892        -6.14383         5.06501
     2021.37166        -3.50605         4.98662
     2021.37440        -6.16927         5.06231
     2021.37616        -6.92748         9.51008
     2021.37987        -0.21371         5.11908
     2021.38261        -5.27093         5.32092
     2021.38535        -3.61615         5.14071
     2021.38809        -5.62837         5.01185
     2021.39082        -1.18059         4.98482
     2021.39356        -0.56582         4.99293
     2021.39630        -7.45804         5.01455
     2021.39904        -9.42426         5.04249
     2021.40164        -4.23261         5.20919
     2021.40478         0.27557         5.88771
     2021.40725        -5.21892         4.96499
     2021.40999        -0.79314         4.96319
     2021.41273        -5.33436         4.96589
     2021.41546        -6.06558         5.10646
     2021.41820        -8.36880         5.03077
     2021.42094        -0.01802         5.05600
     2021.42368         5.47576         5.11547
     2021.42642        -2.09446         5.04339
     2021.42915        -0.11568         5.02086
     2021.43189         4.04010         5.05871
     2021.43463        -5.06012         4.99112
     2021.43737        -4.72634         5.00104
     2021.44010        -3.67556         5.00734
     2021.44284        -5.30978         5.06682
     2021.44558        -7.18200         5.22901
     2021.44832        -6.47122         5.07943
     2021.45106        -0.97544         5.20558
     2021.45379         1.51334         5.10376
     2021.45653        -5.23688         5.09115
     2021.45927        -2.94410         4.97491
     2021.46201        -5.89632         4.96139
     2021.46475        -0.02554         4.94787
     2021.46748         2.44424         5.05961
     2021.47022        -2.62498         5.11908
     2021.47296         5.20680         5.06051
     2021.47570        -5.67342         5.12629
     2021.47815        -5.32093         5.61738
     2021.48939         0.04748         5.07853
     2021.49212         5.92826         5.09835
     2021.49486         6.91204         5.15602
     2021.49760         8.58582         5.31822
     2021.50034        -4.01441         5.21279
     2021.50308        -4.95163         5.08123
     2021.50581        -5.37885         5.11547
     2021.50855         0.81393         5.15873
     2021.51129         1.75571         5.12989
     2021.51403         4.42749         5.09295
     2021.51676         3.26127         5.06231
     2021.51950        -1.46295         5.16143
     2021.52224        -2.05117         5.05060
     2021.52498         2.61961         5.07583
     2021.52772         0.85239         5.01996
     2021.53045         0.01817         5.09745
     2021.53319         1.48595         5.00284
     2021.53593        -0.17327         5.11187
     2021.53867         1.97551         5.41103
     2021.54141         4.02729         5.10917
     2021.54414        -5.64893         5.07763
     2021.54688        -9.08815         5.01185
     2021.54962        -5.50637         5.22721
     2021.55509         0.67319         5.09565
     2021.55783        -2.47903         5.05510
     2021.56057         0.31575         4.99473
     2021.56331        -0.44947         5.05510
     2021.56605         1.93531         5.05420
     2021.56878        -3.61491         5.11818
     2021.57152        -0.29813         5.16954
     2021.57426        -8.52135         5.06862
     2021.57700         2.87043         5.66243
     2021.57974        -3.25579         5.03798
     2021.58247        -9.26301         5.12088
     2021.58521        -1.96423         5.23442
     2021.58795        -0.50745         5.30380
     2021.59069        -1.13067         5.14251
     2021.59342        -3.84589         5.24884
     2021.59616        -8.43011         5.33534
     2021.59890        -5.94933         5.20288
     2021.60164         5.36345         5.38850
     2021.60438        -1.73877         5.06141
     2021.60711        -2.93899         5.05420
     2021.60985         1.09778         5.12539
     2021.61259         1.53256         5.16684
     2021.61533        -3.99966         5.09926
     2021.61807         1.21712         5.14972
     2021.62080        -4.94410         5.01906
     2021.62354        -1.33132         5.01816
     2021.62628        -2.13254         5.17495
     2021.62902         0.99124         5.12539
     2021.63175        -8.49898         5.19117
     2021.63449         0.59080         5.01816
     2021.63723        -2.04842         5.21279
     2021.63997        -2.58764         5.11097
     2021.64271        -1.86286         5.07763
     2021.64544         0.11492         5.01185
     2021.64818         1.62770         5.11007
     2021.65055         4.74211         5.96340
     2021.65393        -8.32346         5.58404
     2021.65639        -3.25496         5.07222
     2021.65913        -4.85718         5.07132
     2021.66187         3.34260         5.10286
     2021.66461        -2.15162         5.07222
     2021.66735         0.69016         5.01455
     2021.67008        -1.66106         5.07222
     2021.67282         1.17872         5.20378
     2021.67556        -0.46350         5.37949
     2021.67830        -2.74372         5.19027
     2021.68104         3.02106         5.04159
     2021.68377         0.52684         5.01275
     2021.68651        -0.51338         5.15963
     2021.68925         1.91140         5.15602
     2021.69199        -0.96982         5.18756
     2021.69472        -5.68704         5.14972
     2021.69746        -3.70826         5.00194
     2021.70020        -4.11348         5.09926
     2021.70294        -2.78970         5.05781
     2021.70568         1.34808         5.20288
     2021.70841        -1.95314         5.07402
     2021.71115         3.05764         5.03978
     2021.71389         8.01242         5.19657
     2021.71663        -0.98381         5.04699
     2021.71937        -7.57203         5.01275
     2021.72210        -6.63825         4.98842
     2021.72484        -0.67247         5.02897
     2021.72758        -2.91869         5.02266
     2021.73032        -5.38391         5.35246
     2021.73305         0.02787         5.08213
     2021.73579         5.78365         5.11277
     2021.73853         6.91043         5.13800
     2021.74127         2.96721         5.07312
     2021.74401         1.98499         5.07493
     2021.74674         1.14477         5.03708
     2021.74948        -4.96245         5.15963
     2021.75222        -1.55067         5.09565
     2021.75496        -0.96689         5.06231
     2021.75770         2.14389         5.07132
     2021.76043         3.05067         5.09565
     2021.76317         3.84145         5.16594
     2021.76591         2.38523         5.09295
     2021.76865         0.27901         5.01005
     2021.77138         3.35979         4.99022
     2021.77412         7.91457         5.07673
     2021.77686         4.71235         5.09835
     2021.77960         4.64413         5.05871
     2021.78234         2.62291         5.06591
     2021.78507         9.79669         4.98662
     2021.78781         5.41147         5.03348
     2021.79009         0.95478         6.19768
     2021.79603         5.47181         5.00825
     2021.79876         2.84159         4.96589
     2021.80150        13.60637         5.12989
     2021.80424         5.14115         5.18666
     2021.80698        -0.24107         5.11367
     2021.80971         3.23071         4.96770
     2021.81245         8.37249         5.22180
     2021.81519        11.15627         4.91543
     2021.81793         5.39005         4.99833
     2021.82067         2.54183         5.15152
     2021.82328         3.50648         6.93387
     2021.82641         2.29166         5.75164
     2021.82888         4.93616         5.22270
     2021.83162         5.20294         5.13079
     2021.83436         5.60572         5.13890
     2021.83709         3.89450         5.09835
     2021.83983        -4.02472         5.18035
     2021.84234         1.25683         5.72641
     2021.84531         1.06184         5.09565
     2021.84804         0.09162         5.07583
     2021.85078         2.68640         5.09115
     2021.85352         1.79418         5.08484
     2021.85626         6.85396         5.04519
     2021.85900         3.66674         5.03978
     2021.86173        -1.60948         5.05690
     2021.86447        -0.50670         5.17314
     2021.86721        -3.32292         5.23622
     2021.86995         3.68986         5.30651
     2021.87269         3.50564         5.02537
     2021.87542         4.24742         5.14881
     2021.87816        -1.86480         4.98662
     2021.88090        -0.57302         5.01726
     2021.88364        -5.03524         5.04879
     2021.88637        -3.93246         5.03528
     2021.88911        -8.92968         4.95418
     2021.89185       -10.27290         4.97310
     2021.89459        -6.77012         5.05600
     2021.89733        -4.06034         5.04879
     2021.90006       -11.41756         5.00464
     2021.90280        -3.81178         5.13530
     2021.90554        -4.57100         4.95869
     2021.90828        -1.43922         5.05510
     2021.91071         0.48325         5.93186
     2021.91402        -4.01339         5.73813
     2021.91649         1.28112         5.00374
     2021.91923         2.38690         5.17314
     2021.92197        -6.68032         5.26956
     2021.92470        -6.42954         5.09115
     2021.92744        -1.23876         5.18125
     2021.93018        -6.95998         5.08033
     2021.93292        -1.34121         5.19747
     2021.93566         7.79157         5.22901
     2021.93839         5.54135         5.28938
     2021.94113         8.24813         5.27857
     2021.94387        10.07391         5.16323
     2021.94661         0.63069         5.06321
     2021.94935         4.01547         5.04068
     2021.95208         5.44925         5.04519
     2021.95482         8.70703         5.21640
     2021.95756         2.45081         5.18125
     2021.96030        -4.50141         5.16864
     2021.96303        -2.90963         5.12539
     2021.96577         5.30215         5.13079
     2021.96851        -0.78807         5.16053
     2021.97125         0.53771         5.21640
     2021.97399         4.40249         5.28938
     2021.97672         8.16027         5.16503
     2021.97946        10.76705         5.11908
     2021.98220        12.14883         5.18666
     2021.98494        10.26561         5.20558
     2021.98767         5.47139         5.19657
     2021.99041         4.44017         5.12809
     2021.99315         1.05995         5.02356
     2021.99561         5.07745         5.87419
     2021.99890       -17.71422         5.71740
     2022.00958        -0.68337         5.11097
     2022.01232       -10.91859         5.07943
     2022.01505         0.24519         5.12719
     2022.01779         3.51597         5.36598
     2022.02053         1.06375         5.17224
     2022.02327        -4.43047         5.44077
     2022.02600        -9.65969         5.10736
     2022.02874        -5.61291         5.18035
     2022.03148        -9.64313         5.18035
     2022.03422       -14.66235         5.20378
     2022.03696       -12.61457         5.08934
     2022.03969       -15.11480         4.99833
     2022.04243        -3.59902         5.56872
     2022.04517        -4.58024         5.05060
     2022.04791        -6.83746         5.14611
     2022.05065        -6.51068         5.07493
     2022.05338        -5.75690         5.08394
     2022.05612       -12.57212         5.02807
     2022.05886       -14.48734         5.10827
     2022.06160       -13.73056         5.11728
     2022.06433        -5.93778         5.12719
     2022.06707       -13.52800         5.07042
     2022.06981        -2.38422         5.05420
     2022.07255       -14.13844         4.96950
     2022.07529        -6.67766         5.03708
     2022.07802        -7.19388         5.00284
     2022.08076        -2.12710         5.02086
     2022.08350         2.28568         5.01185
     2022.08624         3.08146         4.95058
     2022.08898        -1.51076         5.02897
     2022.09171        -9.00598         5.01996
     2022.09445       -11.29720         5.04249
     2022.09719       -13.19542         4.96770
     2022.09993       -11.38564         5.09385
     2022.10266       -10.79786         5.06862
     2022.10540         0.60392         5.01365
     2022.10814         1.45570         5.08213
     2022.11088        -5.30052         4.98572
     2022.11362        -6.30074         5.03348
     2022.11635        -1.29096         4.87669
     2022.11909        -4.07818         4.98301
     2022.12183         1.53960         5.05510
     2022.13278        -6.23928         4.93346
     2022.13552        -4.03950         4.98211
     2022.13826         0.86928         5.06501
     2022.14099        -5.30694         5.04249
     2022.14373       -14.84516         4.88119
     2022.14647       -10.98138         4.91814
     2022.14921        -5.56961         5.21550
     2022.15195        -8.97983         5.16774
     2022.15468        -9.12305         4.95959
     2022.15742        -5.31127         5.11277
     2022.16016        -1.46149         4.89921
     2022.16290        -3.94271         5.01906
     2022.16564        -5.87593         5.09475
     2022.16837         0.70885         4.98301
     2022.17111        -4.16837         5.03438
     2022.17385        -2.09159         4.96950
     2022.17659        -1.09881         4.94066
     2022.17932        -7.66103         4.98662
     2022.18206        -6.16425         4.95058
     2022.18480       -13.65147         4.99383
     2022.18754        -3.74369         5.07222
     2022.19028        -6.12191         5.00644
     2022.19301        -1.14813         4.93616
     2022.19575         7.06165         4.93075
     2022.19849        -6.23557         4.99473
     2022.20123        -3.71179         5.11187
     2022.20397         1.50399         4.87488
     2022.20670        -2.47423         5.01636
     2022.20944         0.12455         5.03528
     2022.21218         2.88633         5.01545
     2022.21492         0.26511         5.00464
     2022.21765        -6.02211         4.94427
     2022.22039        -4.19133         4.92174
     2022.22313        -6.17955         4.93886
     2022.22587       -11.90177         5.07493
     2022.22861        -2.85599         5.17855
     2022.23134        -2.21621         5.00644
     2022.23408        -2.00143         4.95778
     2022.23682         2.91335         5.09835
     2022.23956         1.17613         4.99473
     2022.24230        -3.07609         5.07312
     2022.24479         2.29443         5.58224
     2022.24804        -0.45826         5.52637
     2022.25051        -0.71175         4.95238
     2022.25325         3.37603         4.97671
     2022.25598         2.55180         5.01095
     2022.25872         3.90858         5.04789
     2022.26146        -4.48864         4.95148
     2022.26420        -3.35386         4.94607
     2022.26694        -4.53308         5.13620
     2022.26967         2.30670         4.93976
     2022.27241         5.33448         4.96319
     2022.27515         2.74426         5.12629
     2022.27789         4.59904         4.95328
     2022.28062        -3.96118         4.99203
     2022.28336        -1.66340         4.99383
     2022.28610         0.52538         5.13980
     2022.28884        -2.72584         5.10917
     2022.29158        -6.20106         4.99923
     2022.29431        -7.05228         4.93616
     2022.29705         1.74250         4.96770
     2022.29979        -1.59072         5.05510
     2022.30253        -2.72594         5.18936
     2022.30527        -0.74616         5.11277
     2022.30800        -0.27938         5.01726
     2022.31074        -4.97460         5.04699
     2022.31348        -6.56682         5.06411
     2022.31622        -6.51604         5.02266
     2022.31895       -23.06226         5.20108
     2022.32169        -0.85248         5.22901
     2022.32443        -1.24970         5.00464
     2022.32717        -7.03692         4.93436
     2022.32991        -5.36514         5.05330
     2022.33264       -14.72036         5.12358
     2022.33538        -4.32158         5.22991
     2022.33812        -4.58480         5.11277
     2022.34086        -2.95502         5.04339
     2022.34360        -6.15524         5.10917
     2022.34633         0.84854         5.01906
     2022.34907         2.53332         5.01005
     2022.35181        -1.31890         4.99833
     2022.35455        -3.50312         4.96229
     2022.35728        -4.90434         4.97040
     2022.36002        -2.06356         4.96229
     2022.36276        -3.26379         5.02266
     2022.36550        -5.03901         5.01545
     2022.36824        -4.42223         5.01906
     2022.37097        -3.56645         5.03888
     2022.37371        -8.84467         4.93165
     2022.37645        -8.17189         5.01636
     2022.37919        -0.86211         5.19928
     2022.38193        -8.09633         5.07673
     2022.38466        -6.92555         4.99022
     2022.38740       -19.32977         4.94066
     2022.39014        -9.79099         5.01275
     2022.39259        -4.39850         5.67685
     2022.39561        -5.44443         5.08213
     2022.39835        -6.67665         5.01005
     2022.40109        -8.49487         5.05690
     2022.40383         2.60091         4.91183
     2022.40657        -0.09031         4.92805
     2022.40930        -9.20953         5.01095
     2022.41204        -4.00875         4.99473
     2022.41478        -6.30197         4.90913
     2022.41752        -3.55919         5.14251
     2022.42026        -3.59141         5.16684
     2022.42299        -3.55463         4.96139
     2022.42573        -6.82885         5.04879
     2022.42847        -6.99707         4.97040
     2022.43121        -7.11029         5.03888
     2022.43394        -2.31251         5.08213
     2022.43668       -16.12473         5.08754
     2022.43942        -3.39395         4.94156
     2022.44216         2.34083         4.98842
     2022.44490         4.54361         5.10917
     2022.44763         0.30439         4.96229
     2022.45037        -7.00983         4.94697
     2022.45311       -10.09205         4.96860
     2022.45585       -10.19827         4.98211
     2022.45859       -22.50549         5.13350
     2022.46132        -6.48471         4.95058
     2022.46406        -8.61093         4.92084
     2022.46680        -7.87915         4.94247
     2022.46954        -6.59137         4.98301
     2022.47227       -18.76060         5.00464
     2022.47501        -1.63982         4.94787
     2022.47775        -8.84904         5.08844
     2022.48049        -9.11626         4.98752
     2022.48323         0.51452         5.03077
     2022.48596         3.74330         4.99473
     2022.48870        -8.69592         5.13890
     2022.49144        -9.68814         4.89291
     2022.49418        -2.44836         5.00915
     2022.49692        -6.82258         4.98662
     2022.49965        -5.58980         4.94697
     2022.50239       -18.04702         5.01996
     2022.50513        -0.48624         5.18666
     2022.50787         8.28554         5.18756
     2022.51060        -5.80068         5.08394
     2022.51334        -8.77190         4.98932
     2022.51608       -10.56012         4.98932
     2022.51882       -11.96834         5.03257
     2022.52156        -3.67456         5.05600
     2022.52429         1.37322         4.96499
     2022.52703         3.29500         4.99203
     2022.52977        10.16078         5.05600
     2022.53251        -1.91444         5.05150
     2022.53525        -3.85966         5.08394
     2022.53798         3.63012         4.93796
     2022.54072        -0.15410         5.01996
     2022.54346         4.26868         5.08574
     2022.54620        -1.34854         5.13710
     2022.54893        -1.61776         5.06772
     2022.55167        10.60702         5.06591
     2022.55441         8.15680         5.07943
     2022.55715         9.16358         5.04970
     2022.55989         4.01136         5.04068
     2022.56262        -1.32386         4.98392
     2022.56536        -9.06908         4.98301
     2022.56810         3.53670         5.00014
     2022.57056         5.02320         5.68586
     2022.57385         9.87453         5.62639
     2022.57631         0.55504         5.04519
     2022.57905        -0.87519         4.97220
     2022.58179         7.92159         4.94877
     2022.58453        12.16537         5.25064
     2022.58726         3.24915         5.17044
     2022.59000         0.99793         5.16864
     2022.59274        -0.57129         4.97400
     2022.59548         0.83849         4.87759
     2022.59822        -5.32273         4.85416
     2022.60095        -0.46695         4.93616
     2022.60369        10.50883         5.05060
     2022.60643         3.42061         5.11728
     2022.60917         5.48739         5.12088
     2022.61190         7.17317         5.14071
     2022.61464         8.76395         4.93255
     2022.61738         9.65473         4.95508
     2022.62012         3.25951         4.86677
     2022.62286         9.64829         4.94517
     2022.62559         7.67207         4.93255
     2022.62833         2.69385         4.91453
     2022.63107         6.24163         4.97130
     2022.63381        17.25741         4.86858
     2022.63655         8.09019         4.88660
     2022.63928        10.62597         4.96770
     2022.64202         8.67475         5.32182
     2022.64476        12.29953         5.32813
     2022.64716        10.66997         5.70208
     2022.65051        12.86436         5.61378
     2022.65297        14.77587         5.23262
     2022.65571        15.39765         5.08123
     2022.65845        16.20043         5.04789
     2022.66119         8.97421         4.90192
     2022.66392        11.21199         4.87759
     2022.66666        10.90877         4.90732
     2022.66940        13.62555         4.90552
     2022.67214        13.88933         5.06051
     2022.67488        13.78511         4.97310
     2022.67761        17.56589         4.92084
     2022.68035        11.41267         4.82893
     2022.68309        13.68545         4.97040
     2022.68583        10.02122         5.16503
     2022.68856        15.19000         4.91093
     2022.69130        12.92078         4.99833
     2022.69404        13.48456         4.96860
     2022.69678        14.50034         4.99383
     2022.69952         5.80212         5.06772
     2022.70225        19.41890         5.16774
     2022.70499        14.93168         5.86969
     2022.70773        11.37246         5.04879
     2022.71047        12.33224         4.95869
     2022.71321        16.28302         5.03438
     2022.71594        17.84980         4.93796
     2022.71868        12.13058         4.90913
     2022.72142        16.54936         4.90913
     2022.72416        10.84714         5.06321
     2022.72689        12.92692         5.00014
     2022.72963        12.66970         4.86587
     2022.73237         9.01848         4.95328
     2022.73511        10.03426         4.95238
     2022.73756         8.16175         5.52817
     2022.74047        20.60670         5.41734
     2022.74332        17.28060         5.20378
     2022.74606        11.79838         5.00374
     2022.74880         9.45116         4.96319
