# ================= DQRFIT RESULTS ================
# INPUT FILE: series/V102.rad
# OUTPUT: LDETRENDED
# FILTER FUNCTION: f(t)
# f(t)=+line(t)+annual(t)
# line(t)=+P 1+P 2*t
# annual(t)=+P 3*sin(2*pi*t+P 4)
# heav(t)=(t<0?0:1)
# TOTAL OBSERVATIONS MTOT= 1704
# INITIAL TIME INTERVAL= 2017.9329 - 2010.4175 =  7.5153
# TOTAL OBSERVATIONS AFTER PREFILTER M= 1651
# TIME-SPAN= 2017.9329 - 2010.4175 =  7.5153
# OBSERVATIONS: USED M=  1651 REJECTED MTOT-M=    53 %USED=   96.8897
# N=  4 PARAMETERS
# MAXSIG= 175.00000
# MAXRES=  43.40185
# SCALE FACTOR FOR LENGTHS: SCL=  10.00000
# SCALE FACTOR FOR SIGMAS: SCLSIG=   1.00000
# CHI^2=   2961.648 DOF=  1647 CHI^2/DOF=   1.79821
# RMS=      9.149 SDEV=      9.150 MEAN=    0.18366
#  P #       PARAMETER +-    SIGMA %error PARAMETER NAME
# P 1 =      9055.25654 +-  166.515   1.84 YZERO                              
# P 2 =        -4.49490 +-    0.083   1.84 SLOPE                              
# P 3 =         7.58779 +-    0.298   3.93 ANNUAL AMPLITUDE                   
# P 4 =        -2.51867 +-    0.045   1.80 ANNUAL PHASE                       
#       T            LDETRENDED       SIG_OBS
     2010.41753         0.14904         9.00061
     2010.42026         2.54330         7.74680
     2010.42300         0.32065         7.75753
     2010.42574        -5.52404         7.69852
     2010.42849        -6.00667         7.82726
     2010.43122        -2.62143         7.67841
     2010.43669        -9.67181         7.97611
     2010.43943         0.27749         7.95867
     2010.44217        -3.36320         7.51883
     2010.44491        -4.67190         7.53895
     2010.44764        -2.25659         7.59259
     2010.45038        -0.91628         7.69316
     2010.45308        -3.77917         8.67207
     2010.45590        -7.36148         7.91576
     2010.45859         4.70664         9.65769
     2010.46133         0.10194         7.84201
     2010.46407        -1.30575         7.64891
     2010.46670        -7.63991         7.90906
     2010.47013        -0.53351         9.84944
     2010.47227        -8.14892         7.73339
     2010.47498         7.17030         8.92149
     2010.48059         0.58449         9.03279
     2010.48319         4.31920         7.63282
     2010.48597         1.75170         7.48665
     2010.48871         4.05698         8.89333
     2010.49144         2.26729         8.01902
     2010.49421         4.09070         7.55906
     2010.49692         1.07088         7.60466
     2010.49966        -2.05779         7.65025
     2010.50220         5.39662        13.28636
     2010.50513        -2.85818         9.16421
     2010.50787         6.51513        13.27563
     2010.51053         2.62107         8.14641
     2010.51350         3.28943         8.32878
     2010.51608         3.82605         7.81251
     2010.51883        -3.29662         7.63282
     2010.52156        11.59466         7.84067
     2010.52430         4.43297         7.59393
     2010.52704         4.83627         7.89699
     2010.52977         4.40956         7.67573
     2010.53251        -0.82711         7.62075
     2010.53525         3.07221         7.80714
     2010.53799         5.20052         7.71998
     2010.54073        -2.75217         7.63282
     2010.54346        -0.95389         7.74680
     2010.54620         2.41242         7.66500
     2010.54894        -1.00825         7.62343
     2010.55168         0.57405         7.68646
     2010.55441         5.00734         8.10886
     2010.55716         4.00167         7.65025
     2010.55990         4.94397         8.26173
     2010.56263         2.89126         7.71328
     2010.56537         5.87858         7.62075
     2010.56810         3.39387         7.70523
     2010.57084         1.74118         7.83128
     2010.57358         4.11750         8.06327
     2010.57633         2.02383         9.86554
     2010.57902         1.17492         9.43374
     2010.58182        -3.31149         8.54066
     2010.58451         1.03262         8.10350
     2010.58726         1.54299         8.06997
     2010.59000        -1.70070         8.14775
     2010.59274         1.44361         7.83664
     2010.59548         7.07191         7.71730
     2010.59822         7.19222         7.81519
     2010.60095         4.64652         7.77496
     2010.60369         4.06483         7.63818
     2010.60630         7.27054         7.99756
     2010.60903         3.92582         8.38242
     2010.61190         4.37475         7.85005
     2010.61454         1.83259         8.22955
     2010.61723         3.50568         8.64391
     2010.62012         3.03267         7.79373
     2010.62286         6.90198         7.87151
     2010.62550         2.61388         8.02170
     2010.62821         0.27805        10.05193
     2010.63107        11.07189         9.09448
     2010.63380         9.54118         7.79239
     2010.63656         9.86659         7.78971
     2010.63928         7.90481         7.88224
     2010.64202         1.68612         7.95867
     2010.64476         0.69543         8.13434
     2010.64750         4.86373         7.76021
     2010.65023        11.88704         7.95197
     2010.65297         7.00634         8.03511
     2010.65571         6.25465         7.59795
     2010.65845         5.45496         7.66366
     2010.66119         4.75326         7.72400
     2010.66392         8.99757         7.83396
     2010.66666         7.21988         7.71864
     2010.66940         0.87418         7.97879
     2010.67214         2.39849         8.21346
     2010.67402         5.79895        11.86090
     2010.67762        12.36814         7.90235
     2010.68019         1.75270         9.38010
     2010.68293         3.64601         8.14909
     2010.68567         8.40532         8.07802
     2010.68841         3.85562         8.14239
     2010.69114         0.89691         8.26710
     2010.69383         4.51298         8.78471
     2010.69679        -0.33971         8.05522
     2010.69958         7.36685         9.19505
     2010.70225         2.94986        11.64635
     2010.70499         1.20317         8.23625
     2010.70773        -4.41153         8.26978
     2010.71047         6.09578         7.81251
     2010.71321        11.92708        10.04389
     2010.71594         4.64539         8.46824
     2010.71868         8.87770        10.62050
     2010.72142         8.18900         9.50347
     2010.72416         7.78831         8.46958
     2010.72689         6.36062        11.24003
     2010.72963       -11.80108        18.80446
     2010.73237         3.79323        11.74156
     2010.73508         0.92341        10.44886
     2010.73897        15.28291        21.20480
     2010.74058        -5.47085         8.19200
     2010.74327        -7.12178        14.36450
     2010.74606         3.25676        15.97635
     2010.74880        10.47707        11.48141
     2010.75150         5.64320        12.46568
     2010.75349        -6.24282        13.47409
     2010.75755        -0.30660        27.46983
     2010.75975         0.46429         9.15482
     2010.76244         2.84141        14.19286
     2010.76523        -5.88705        17.11081
     2010.76796        17.98121         9.76228
     2010.77070        -7.49048         8.04852
     2010.77344        -3.98618         8.19871
     2010.77618         2.83513         7.82994
     2010.77877        -2.86520         8.24430
     2010.78156         0.40234         9.24467
     2010.78439         5.75005         9.45252
     2010.78713        -1.64564        10.16591
     2010.78987         7.92766         7.63416
     2010.79260         3.67397         7.78703
     2010.79534        -0.08072         7.70121
     2010.79800         1.22824         7.96001
     2010.80082         4.64089         7.69450
     2010.80355         2.97819         7.91710
     2010.80629        -0.00750         8.55406
     2010.80903         3.26681         7.92113
     2010.81177        -3.33389         8.09813
     2010.81451         7.87242         8.02840
     2010.81723         5.38766         7.67305
     2010.81998         5.35703        12.32488
     2010.82272         0.53834         7.74680
     2010.82546         1.17165         8.11020
     2010.82820        -2.47005         7.75216
     2010.83093         5.52926         8.50311
     2010.83361        -0.76369         8.40924
     2010.83915        -3.88382         9.94063
     2010.84172         2.06174         8.89333
     2010.84462         7.14679         8.52725
     2010.84736         5.22010         7.69852
     2010.85010        -0.83960         7.83664
     2010.85284         7.41871         7.65695
     2010.85559         4.49610         7.77094
     2010.85831         1.74332         7.78301
     2010.86105        -5.43337         7.67573
     2010.86379       -11.24107         7.68511
     2010.86653        -5.44576         7.67305
     2010.86926        -6.52345         7.71462
     2010.87200        -1.89615         7.70255
     2010.87474         4.28216         7.78435
     2010.87748        -0.42353         7.77898
     2010.88021         0.09677         7.70657
     2010.88295        -0.33592         7.84067
     2010.88569        -1.68761         7.65427
     2010.88843         0.65969         7.93051
     2010.89117         5.90000         7.98281
     2010.89390         2.91930         7.60734
     2010.89664         0.34661         7.66232
     2010.89938         2.96592         7.62075
     2010.90212         0.87022         7.70523
     2010.90485        -4.89847         7.60197
     2010.90759         0.86584         7.54297
     2010.91033         1.88614         7.71730
     2010.91307       -10.60755         7.62879
     2010.91581        -4.63624         7.87017
     2010.91854        -3.15094         7.61404
     2010.92128        -5.37763         7.64086
     2010.92402        -2.72933         7.59795
     2010.92676         2.65798         7.67707
     2010.92950        -1.01271         7.61002
     2010.93223        -4.10141         7.82860
     2010.93497        -8.23510         7.72266
     2010.93771        -8.16979         7.71462
     2010.94045        -1.65749         7.67573
     2010.94318         2.67682         7.63013
     2010.94592       -17.39687         7.76289
     2010.94866        -7.28557         7.64891
     2010.95140         3.38574         7.78837
     2010.95414        -8.81796         7.80580
     2010.95687        -8.25265         7.53761
     2010.95961        -3.50234         7.79239
     2010.96235        -1.13404         7.69048
     2010.96509         0.82727         7.62477
     2010.96783        -5.41242         7.56979
     2010.97056        -6.60612         7.66768
     2010.97330        -4.13481         7.65293
     2010.97604        -6.72350         7.64489
     2010.97878        -5.85120         7.64489
     2010.98151        -9.65089         7.65293
     2010.98425        -5.46359         7.62477
     2010.98699        -2.15328         7.64086
     2010.98973        -6.34997         7.78971
     2010.99247         5.52133         7.88090
     2010.99520         2.66564         7.71596
     2010.99794        -5.58505         7.56979
     2011.00342        -0.95744         7.59259
     2011.00616        -2.02313         7.55772
     2011.00889         0.22317         7.72400
     2011.01163        -0.29952         7.61538
     2011.01437        -6.29422         7.63818
     2011.01711        -9.74691         7.89565
     2011.01984        -3.23960         7.59661
     2011.02258        -6.03830         7.54968
     2011.02532        -3.99099         7.78032
     2011.02806        -1.75568         8.00158
     2011.03080         4.46562         7.71328
     2011.03353       -10.07007         7.70523
     2011.03627       -10.13877         7.63818
     2011.03901        -8.20446         7.73875
     2011.04175        -3.18915         7.86615
     2011.04449        -1.52785         7.56309
     2011.04722        -5.40254         7.66232
     2011.04996        -6.25823         7.91040
     2011.05270        -4.06993         7.60063
     2011.05544        -5.17262         7.72400
     2011.05817         2.24169         7.63282
     2011.06091        -1.26601         7.61941
     2011.06365        -8.09070         7.52017
     2011.06639        -4.82140         7.58320
     2011.06913       -10.78509         8.14775
     2011.07186       -15.45178         7.84201
     2011.07460       -11.82648         7.73473
     2011.07734        -8.47917         7.54297
     2011.08008        -6.58586         7.67841
     2011.08282        -9.10056         7.62879
     2011.08555       -15.72025         7.78435
     2011.08829        -4.94094         7.75753
     2011.09103        -8.55464         7.64757
     2011.09377        -2.09833         8.96977
     2011.09650        -3.04103         7.73205
     2011.09924       -11.12272         7.62477
     2011.10198        -0.99741         7.76557
     2011.10472        -6.43011         7.67170
     2011.10746        -8.99280         7.52554
     2011.11019        -4.93749         7.52956
     2011.11293         1.57681         7.79910
     2011.11567         2.16012         7.77496
     2011.11841        -6.12157         7.91978
     2011.12115        -5.29027         7.75619
     2011.12388        -7.15896         7.79642
     2011.12662         0.06534         8.07131
     2011.12936         0.87065         8.04852
     2011.13210        -9.55404         7.62075
     2011.13483        -5.92474         7.54163
     2011.13757        -4.09343         7.53090
     2011.14018        -3.17670         7.79373
     2011.80953         7.95797        22.98025
     2011.81108         4.31793         9.57589
     2011.81382        -2.53276         8.16518
     2011.81656        -5.38445         8.07802
     2011.81922         2.74249        13.77045
     2011.82203         0.80616         7.99488
     2011.82463         4.92285         8.25369
     2011.82752        -4.32319         8.05388
     2011.83025        -4.91992         9.11593
     2011.83299         2.04538         9.00865
     2011.83572        -2.62831         7.93990
     2011.83847       -10.08298        12.80093
     2011.84120         9.34730         8.21748
     2011.84394        10.46861         8.13166
     2011.84668         3.60092         8.38108
     2011.84941        -0.61478         8.07802
     2011.85199       -10.55318        17.54931
     2011.85490        -6.24010         8.38510
     2011.85763         0.18214         8.73778
     2011.86015        21.26647        18.28550
     2011.86347         2.14742         9.63623
     2011.86590        36.53132        52.59831
     2011.87166         8.75721         9.17225
     2011.87405        -4.29902         8.26173
     2011.87679        -0.58271         8.18798
     2011.87953         4.39959         7.84335
     2011.88227         2.83390         7.81117
     2011.88501         7.14021         7.83799
     2011.88774        -0.57649         8.05120
     2011.89048        -1.96218         7.90503
     2011.89322        -7.76788         8.09009
     2011.89596        -6.80357         7.85408
     2011.89869         7.28374         8.13836
     2011.90151        -6.78261         8.23760
     2011.90417       -10.63465        15.19054
     2011.90691        -2.62934         7.90772
     2011.90965         5.54796         7.85676
     2011.91238         2.36727         8.04315
     2011.91512         1.48858         7.99488
     2011.91786        -2.80812         7.88894
     2011.92060        -5.93281         7.88224
     2011.92334        -4.31051         8.07131
     2011.92607        -9.10220         7.93588
     2011.92881        -5.19689         7.99756
     2011.93155         0.85041         8.04986
     2011.93429         0.83472         7.86615
     2011.93702         0.66403         7.98281
     2011.93976         1.14233         8.08070
     2011.94250         5.65762         8.02304
     2011.95143         4.11078        11.84481
     2011.95345         5.44886         8.17725
     2011.95619         2.31617         8.29526
     2011.95893        -2.44952         7.97074
     2011.96167         3.84078         8.58625
     2011.96434         0.92881         8.73510
     2011.96715        11.58044         8.38644
     2011.96988         6.49770         8.60234
     2011.97262        -1.40399         7.94660
     2011.97532         2.66214         8.07131
     2011.97809         0.78362         8.08070
     2011.98088         4.19114         8.45215
     2011.98354        10.27213         8.41997
     2011.98630         2.59450         8.69889
     2011.98906         8.57691        10.85652
     2011.99178         2.01715         9.22455
     2011.99456        13.09963        10.19407
     2011.99726         2.50179         9.36535
     2012.00275        -1.90654        11.92393
     2012.00547        -0.42131         8.96574
     2012.00821         3.90699         8.88126
     2012.01095        20.38130         8.60234
     2012.01368         6.68060         8.21212
     2012.01642         5.63291         7.88090
     2012.01916         7.54422         8.15848
     2012.02183        11.87320         9.40558
     2012.02466         4.73496         8.37303
     2012.02737         3.23914         8.43874
     2012.03011         2.02344         8.29928
     2012.03289         1.49792         7.88358
     2012.03559         1.71506         8.40254
     2012.03833        -4.09964         8.30330
     2012.04106        -5.40533         8.53261
     2012.04380         4.21797         8.68280
     2012.04654         1.45228         7.85944
     2012.04925         2.73046         8.03377
     2012.05198       -32.20226         8.16786
     2012.05473        12.92009         8.30598
     2012.05750         8.57255         8.31001
     2012.06020         1.04871         9.37742
     2012.06294         3.36601         8.67878
     2012.06571         5.61045         9.13605
     2012.06844        -5.86627        10.32013
     2012.07118        -1.53696         8.58759
     2012.07392         4.27834         8.41729
     2012.07666         0.49565         7.82860
     2012.07939         3.88596         8.76057
     2012.08213         3.27526         8.02974
     2012.08487        -1.69543         8.45886
     2012.08760        -3.04617         7.98549
     2012.09037        -1.40871         8.84237
     2012.09296         4.06095         8.44679
     2012.09585         5.42192         7.92247
     2012.09878         3.61308         9.40961
     2012.10132         4.21854         8.67341
     2012.10409         2.26197         8.03243
     2012.10672        -3.84919         8.65464
     2012.10954         3.56446         8.24832
     2012.11225         1.37263         8.26978
     2012.11498         2.72194         8.08338
     2012.11772         2.77325         8.36096
     2012.12046        10.31455         7.85005
     2012.12312         1.79450         8.25637
     2012.12600         0.75746         9.58125
     2012.12867         1.59847         9.54236
     2012.13141        -0.07622         8.23089
     2012.13415         3.04708         8.04584
     2012.13689         5.34039         7.94795
     2012.13963         4.01770         8.59698
     2012.14221         1.82332         8.74180
     2012.14514        -0.56552         8.81824
     2012.14784        -4.19238         8.19871
     2012.15058        -0.88508         7.83128
     2012.15331        -1.59177         7.85005
     2012.15605        -1.15346         8.16384
     2012.15879        -0.96816         9.51957
     2012.16146        -0.97415         9.06229
     2012.16448         0.58244         9.10386
     2012.16700        -1.99524         7.91308
     2012.16974         0.00307        12.24844
     2012.17248         5.16237         8.00561
     2012.17522         3.50868         7.86078
     2012.17796        -0.92501        10.89406
     2012.18069        -6.94671        11.97355
     2012.18343        -1.01840        10.17932
     2012.18617        -4.29710         8.31805
     2012.18891        -3.16279         7.94660
     2012.19164        -0.59348         8.20407
     2012.19319         7.26246        21.22223
     2012.19714        -1.99278         8.28051
     2012.19986        -1.08856         8.27112
     2012.20259         1.17870         9.99293
     2012.20534         1.91407         9.24601
     2012.20807         0.67536        10.04791
     2012.21078        -1.49447         8.41326
     2012.21338        -1.71078         9.19639
     2012.21632        -2.21355         9.26344
     2012.21902         3.27858        12.86261
     2012.22180        -3.65992        10.79349
     2012.22450        -7.87681        10.26515
     2012.22728        -2.88931         7.96135
     2012.22995         2.13868         8.89601
     2012.23263         0.21573        11.89711
     2012.23548         2.82757        10.81494
     2012.23775        -3.18926        13.97562
     2012.24096        -8.30282        11.50823
     2012.24370        -8.09949         9.28624
     2012.24640        -1.62836         9.71401
     2012.24914         2.18195         8.67207
     2012.25185        -1.84085         8.42935
     2012.25459        -4.50356         9.29562
     2012.25735        -2.34513         8.04718
     2012.26009        -8.86082         8.55809
     2012.26283        -2.95052         8.64793
     2012.26516       -10.27303        10.23430
     2012.26840        -2.39446         8.11020
     2012.27109        -3.63538         9.15348
     2012.27382        -3.00410        10.05864
     2012.27652         2.76601         9.52761
     2012.27926         4.80632         8.70291
     2012.28199        -0.79237         8.57284
     2012.28473        -0.15007         9.11325
     2012.28744        -3.91089         9.70596
     2012.29021        -9.25243         8.00695
     2012.29295        -2.45815         8.80349
     2012.29566        -5.55095         8.42399
     2012.29846        -3.38934         8.51920
     2012.30116        -8.09623         7.86883
     2012.30390        -5.97592         8.18664
     2012.30663        -5.45562         7.88090
     2012.30937         0.68567         8.34353
     2012.31211         6.96000         9.59198
     2012.31485        -3.27070         8.86249
     2012.31759        -1.96337         8.34621
     2012.32031        -2.25115         8.36499
     2012.32307        -3.20576         8.06595
     2012.32580        -3.21747         7.95063
     2012.32854        -6.44414         7.80983
     2012.33128        -0.29484         8.53127
     2012.33401        -0.00955         7.85005
     2012.33675        -5.02225         8.24698
     2012.33949        -5.54094         8.24966
     2012.34223        -9.60663         8.06863
     2012.44462        -7.35440        28.52785
     2012.44621         2.59977         9.73814
     2012.44903         3.32342         8.05791
     2012.45174         1.53362         9.85347
     2012.45446        -1.13416         8.48970
     2012.45723         1.96830         8.00427
     2012.45995        -3.57046         8.38913
     2012.46269         8.30185         8.77935
     2012.46543        -0.81185         8.79678
     2012.46816         4.37144         8.50177
     2012.47088         4.88566         8.37572
     2012.47365         6.15409         8.81287
     2012.47641        -2.86347         7.92247
     2012.47912         3.97769         7.85542
     2012.48184         2.78991         8.78069
     2012.48461         4.62936         8.28855
     2012.48730        -4.34355         8.32342
     2012.49281         4.87222         8.72035
     2012.49555         2.76752         7.76691
     2012.49828         4.10383         7.98817
     2012.50104         6.08022         8.31135
     2012.50381        -0.34932         8.80349
     2012.50655         0.36596         7.89297
     2012.50924         0.78006         8.84506
     2012.51201         2.35453         9.64159
     2012.51471         1.51467         8.07936
     2012.51741         7.71780         8.36231
     2012.51998         9.72234         8.85444
     2012.52370        -2.46291        12.21626
     2012.52566         1.66789         8.25905
     2012.52844         6.17939         8.60502
     2012.53114         0.84751         9.37340
     2012.53391        -1.55804         8.29928
     2012.53661        10.90212         8.18396
     2012.53935        -2.72657         8.62782
     2012.54206         8.43658         8.25905
     2012.54483         5.46104         8.48299
     2012.54757         8.76834         8.85847
     2012.55030         6.44065         8.78739
     2012.55309         7.13019         8.84908
     2012.55578        10.30826         7.83933
     2012.55852         0.61757         8.33280
     2012.56125         5.75588         7.89431
     2012.56404         4.94237         8.71096
     2012.56673        10.13849         8.46690
     2012.56945        13.25971         8.18262
     2012.57226        10.11536         8.60234
     2012.57494        10.54641         7.56443
     2012.57768        10.56171         7.91040
     2012.58042        11.79502        10.12032
     2012.58316        27.91033         9.85749
     2012.58590         8.73263         9.77971
     2012.58863         9.52094         9.00329
     2012.59137        12.79225         8.62916
     2012.59410        11.81153         8.06059
     2012.59685        12.34586         8.58893
     2012.59958         8.70316         8.33817
     2012.60232         9.25247         8.37840
     2012.60506         6.92978         8.31939
     2012.60780         9.01608         8.24028
     2012.61054        17.82039         8.41058
     2012.61327        15.38470         7.85408
     2012.61600        16.07694         8.31001
     2012.61885        19.78276         8.83433
     2012.62153        11.91083         9.03547
     2012.62423        10.87192         8.58491
     2012.62699        14.80334         8.64525
     2012.62970         9.60653         8.13836
     2012.67727        16.05234        17.82153
     2012.67898        13.54905         9.28624
     2012.68172        14.53236         8.89065
     2012.68446        15.76966         8.97245
     2012.68720        15.56797         8.07131
     2012.68993        19.10527         7.86346
     2012.69264        14.83745         8.26844
     2012.69545        18.85708         9.76094
     2012.69819        16.96841         9.22321
     2012.70089         7.89050         8.82494
     2012.70362         9.90081         8.90138
     2012.70636         4.88611         8.96977
     2012.70903         9.81810         8.49104
     2012.71185        10.04877         8.08070
     2012.71457        18.19803         8.18932
     2012.71731        13.84334         7.91844
     2012.72005        14.56064         8.02572
     2012.72279        18.52895         8.23625
     2012.72553        19.98726         8.11020
     2012.72826        15.59556         8.02036
     2012.73106        14.67715         8.41192
     2012.73374        15.59918         8.56882
     2012.73645         7.37638         8.52859
     2012.73922        14.97481        10.61380
     2012.74199        13.30127         8.61307
     2012.74469        11.09740         8.08204
     2012.74743        21.00871         7.98013
     2012.75017         4.62301         8.26844
     2012.75290        26.80732         8.45215
     2012.75564        10.72463         7.96672
     2012.75835        10.89778         8.33817
     2012.76112        14.92224         8.49909
     2012.76386        14.48955         8.77801
     2012.76659        20.83585         8.11825
     2012.76929        16.98999         8.87188
     2012.77207        16.30547         9.61075
     2012.77481         7.81877         8.04718
     2012.77754        16.24008         8.00829
     2012.78028        18.02038         8.37706
     2012.78301         7.00265         8.62380
     2012.78599        10.12104         9.22992
     2012.78850        17.58330         8.42667
     2012.79123        19.70361         9.67646
     2012.79397        10.34592         8.24162
     2012.79671        13.26322         8.05656
     2012.79945         3.08353         8.70828
     2012.80219        14.17684         8.27380
     2012.80492         8.76114         8.16921
     2012.80766         7.08145         7.99890
     2012.81040         7.04075         8.08875
     2012.81314         5.52406         8.52322
     2012.81585        -1.08476         8.54200
     2012.81858        -1.16548         8.87858
     2012.82135         2.56898         7.82994
     2012.82409         6.28929         8.24162
     2012.82683         9.08459         8.00024
     2012.83231        -3.58377         8.10886
     2012.83502        -1.32957         8.46422
     2012.83779         8.38086         7.97611
     2012.84052         5.47512         7.88894
     2012.84325         3.18743         8.09277
     2012.84599        -2.05726         9.00731
     2012.84873         2.76504         8.03243
     2012.85150         4.03248         8.46690
     2012.85425         3.16287         7.92917
     2012.85694         7.65796         8.39985
     2012.85968         5.27027         8.03243
     2012.86241         6.34555         8.31403
     2012.86516        -0.04012         8.29526
     2012.86913        -4.96324        31.82128
     2012.87068         1.88271         9.23662
     2012.87337         4.22880         9.20444
     2012.87609         4.82302         9.41631
     2012.87885        -1.81054         8.01231
     2012.88158         1.31672         8.39985
     2012.88432         6.42903         8.94563
     2012.88706         9.78633         8.81555
     2012.88980         6.96964         8.17189
     2012.89256         2.07507         8.12764
     2012.89527        -7.67275         8.38376
     2012.89801         1.11556         8.51115
     2012.90075         3.13786         8.40522
     2012.90348         4.30415         8.71766
     2012.90610         7.22790         9.08643
     2012.90896        12.61878         9.75021
     2012.91174         9.87128         9.66573
     2012.91444         7.11640         8.73241
     2012.91718         2.76370         9.22321
     2012.91988        -0.63512         8.48970
     2012.92263        -1.25177         9.44179
     2012.92537         4.50051         9.13068
     2012.92813         2.68293        11.03889
     2012.93086         7.79823         9.07570
     2012.93360         2.43954         9.69657
     2012.93634         0.14185         8.35560
     2012.93908        -2.97285         8.60770
     2012.94182         5.51846         8.99122
     2012.94452         9.74959         8.97379
     2012.94729         5.95207         9.05425
     2012.95000        10.12025         9.04486
     2012.95267         8.95126         9.04352
     2012.95549        12.00593         8.57552
     2012.95826         6.78138        10.67280
     2012.96106        10.64295        10.54273
     2012.96373         6.76095         9.38010
     2012.96646         6.14222         8.83835
     2012.96917        -6.96061         8.56077
     2012.97193        -1.36417         8.01231
     2012.97467         2.19314         8.15714
     2013.11157       -10.28950         8.54870
     2013.11430        -3.90324         7.71193
     2013.11704       -20.52293        12.30477
     2013.11973       -15.56784        15.14629
     2013.12279       -14.87108        12.89345
     2013.12512       -28.13361        13.60953
     2013.12799        -3.68171         8.20139
     2013.13073        -6.19940         7.74412
     2013.13347        -3.11010         8.58625
     2013.13613         0.52389         9.14677
     2013.13894        -3.86848         8.79544
     2013.14168        -6.44418         9.26612
     2013.14444        -7.65176         8.89199
     2013.14716        -0.53754         9.57857
     2013.14989        -8.26126         7.79507
     2013.15381        13.18435        23.33561
     2013.15537       -15.29864         8.62916
     2013.15811       -15.24234         8.65598
     2013.16084       -16.56103         8.53797
     2013.16358       -17.88173         8.25905
     2013.16632       -12.22842         7.92783
     2013.16906        -3.79311         8.02840
     2013.17180        -5.01281         9.45252
     2013.17451         0.03539         7.93319
     2013.17726        -2.32526         9.37876
     2013.18002       -10.72584         8.27648
     2013.18273        -5.68765         8.56077
     2013.18554        -8.16904         8.01902
     2013.18827        -4.93878         8.58759
     2013.19096       -10.38566         8.41729
     2013.19370        -8.84236         8.33951
     2013.19649       -13.33281         8.62380
     2013.20276         0.24539        17.81885
     2013.20465        -7.95213         8.09813
     2013.20739        -0.89482         8.29660
     2013.21013        -6.42252         8.57150
     2013.21286        -8.15621         7.82994
     2013.21565        -3.51369         8.07534
     2013.21833        -2.22262         8.57954
     2013.22108        -7.30329         9.59198
     2013.22381        -4.88699         9.58795
     2013.22655        -7.99068         8.58088
     2013.22913        -9.59610        11.61551
     2013.23203        -8.24907         8.64123
     2013.23472        -4.99995         8.85981
     2013.23750        -7.16345         9.54773
     2013.24019        -6.17836         9.03547
     2013.24304       -10.64056         8.73778
     2013.24572         2.21647         7.89297
     2013.24846         2.56877         8.82762
     2013.25119         0.92106         8.24028
     2013.25393        -2.17562         8.92015
     2013.25667        -2.07331         9.42570
     2013.25941         2.03800         8.36499
     2013.26214        -4.89970         9.02475
     2013.26488        -7.58939         8.30598
     2013.26761        -3.25715         8.57686
     2013.27036        -7.82178         9.33719
     2013.27310       -11.38847         9.61746
     2013.27581        -3.42425         8.57418
     2013.27858        -5.24184         8.45751
     2013.28131        -3.15555         8.54200
     2013.28405        -7.52925         8.87992
     2013.28680        -6.03385         8.56747
     2013.28957        -8.84744        11.28965
     2013.29228        -3.41922         9.52493
     2013.29500       -10.46602         8.14239
     2013.29771       -14.04584         8.36901
     2013.30048       -15.61139         8.34487
     2013.30321       -13.22610         8.10618
     2013.30589       -11.85405         9.54773
     2013.30873       -18.86630         9.10252
     2013.31147       -10.35397         8.64659
     2013.31372        -5.43686        10.91954
     2013.31707         4.16218        11.33927
     2013.31964         0.96274         8.01231
     2013.32238        -5.85896         7.92783
     2013.32513        -7.16357         8.79008
     2013.32791        -3.43909         8.39851
     2013.33059       -12.00904         8.60368
     2013.33333        -7.91373         8.12495
     2013.33611       -11.41821         8.71498
     2013.33880         2.72588         8.06327
     2013.34151        -3.20896         8.17591
     2013.34427        -6.17957         8.25369
     2013.34702        -6.38920         8.13702
     2013.34976        -2.71889         8.08607
     2013.35250        -4.91654         8.31403
     2013.35523        -0.98028         8.18396
     2013.35797         5.97403         8.39449
     2013.36071        -8.62067         8.43606
     2013.36341       -11.58953         8.26710
     2013.36618        -9.14106         9.78910
     2013.36892         3.46125         8.84372
     2013.37166        -4.71844         8.59698
     2013.37440        -4.92014         8.99524
     2013.37716         1.43130         8.89869
     2013.37987        -6.55052         7.84067
     2013.38259        -8.63432         8.12361
     2013.38538        -4.17876         9.22723
     2013.38809        -3.92660         8.33146
     2013.39087        -2.28911         8.51920
     2013.39356        -5.33299         9.41095
     2013.39606         1.74625        15.47348
     2013.39896         1.56426        27.11849
     2013.40166        -5.76361        12.97257
     2013.40402         3.35901        43.55479
     2013.40735       -14.82303        21.51859
     2013.40967       -12.76456        29.60600
     2013.41280         1.15849        16.84932
     2013.41537         3.02303        16.95258
     2013.41942       -14.39076       131.65536
     2013.42092         6.47799        44.65841
     2013.42322        -7.65367        11.83811
     2013.42664        -3.44229        22.78715
     2013.42868         7.08685        16.71522
     2013.43140       -20.40690        31.25807
     2013.43445         5.46581        15.58478
     2013.43730       -16.35541        38.42021
     2013.44009         1.86413        26.16908
     2013.44260        -3.05557       100.76337
     2013.44508        -5.21841        34.05937
     2013.44826       -26.53412        24.71815
     2013.45163         3.88403        87.61379
     2013.45394       -14.94859        18.41558
     2013.45651        -6.60003        19.63855
     2013.45917         0.30091        15.67329
     2013.46147        -9.10177        27.02730
     2013.46757        17.03266        98.11093
     2013.46991       -12.81982        12.85322
     2013.47301         1.16411        22.17835
     2013.47547        -5.45581        19.80348
     2013.47816        -1.39673        13.01280
     2013.48097        -2.87109        22.56321
     2013.48681         2.44213       146.46909
     2013.48918       -11.46419        24.27295
     2013.49181        44.60665       149.82286
     2013.49637         5.81712        25.43370
     2013.50190       -27.36801        77.11264
     2013.50582        -3.39639        51.46117
     2013.50805        20.72063        26.99378
     2013.51122        21.79086        90.41911
     2013.51402        -4.08755        23.71778
     2013.51663       -15.06980        34.16664
     2013.51909         6.91126        15.82884
     2013.52185        13.38966        46.29172
     2013.52499        12.79876        16.58113
     2013.52753         2.09819        22.64501
     2013.53080        -0.15714        13.12142
     2013.53323        13.58080        13.79593
     2013.53536        11.87040        15.74436
     2013.53800         4.06423        32.05863
     2013.54096        12.46056        32.14043
     2013.54394        14.61296        30.44544
     2013.54692         3.02136        29.35926
     2013.54921         7.63063        15.19322
     2013.55246        21.20823        22.32585
     2013.55447        -9.83072        29.37401
     2013.55775         5.85603        28.44874
     2013.56004        -2.77670        21.03718
     2013.56296        23.93644        41.90137
     2013.56636       -15.36328        74.52724
     2013.56851         8.32238       102.22369
     2013.57152         4.06892        21.57759
     2013.57426        17.63923        29.57649
     2013.57654       -19.11954        26.91735
     2013.57914         0.11817        29.91442
     2013.58240        12.89783        28.87114
     2013.58517         7.85026        19.88797
     2013.58800         7.03099        11.61551
     2013.59070         8.90313        12.38388
     2013.59279        20.79353        54.71303
     2013.59591       -21.16445       913.57697
     2013.59852        14.34125        21.83372
     2013.60117         3.65318        29.35657
     2013.60382         6.61512        29.42496
     2013.60690         1.79396        15.90930
     2013.60955         9.02884        19.62514
     2013.61256        12.12439        14.71449
     2013.61477        15.12230        23.00305
     2013.61746        21.89242        19.75387
     2013.62047         3.76694        81.00816
     2013.62359         7.19696        20.58259
     2013.62625        35.96990        19.33951
     2013.62850         0.93705        24.95148
     2013.63126        11.34642        21.40461
     2013.63449        19.82797        21.98927
     2013.63683        24.89648        20.63087
     2013.63947         7.70434        68.34267
     2013.64301        18.09225        23.89345
     2013.64487         9.32263        17.32000
     2013.64828        -3.66407        95.13531
     2013.65134        27.23369        19.29660
     2013.65318        -3.03905        22.86358
     2013.65632         5.23610        13.43521
     2013.65897         6.65200        16.49262
     2013.66185       -27.64908        37.60356
     2013.66454        16.31004        18.36060
     2013.66739         9.55884        15.59417
     2013.67008         7.00795        15.44935
     2013.67265        -9.29351        15.12751
     2013.67512        10.30858        18.24796
     2013.67787        18.42595        12.00036
     2013.68114         0.88467        10.23833
     2013.68378         3.85953        12.74729
     2013.68651         5.32279        11.59405
     2013.68924         4.03207        19.00561
     2013.69159        17.94361        12.46836
     2013.69481        12.79707        19.38510
     2013.69698         3.64786        17.05985
     2013.69967         8.46893        16.11045
     2013.70299        13.11884        11.61014
     2013.70568        19.74393         9.90711
     2013.70829        13.69866        11.46129
     2013.71079         3.21690        19.76594
     2013.71331        19.50225        23.26319
     2013.71632         4.97779        17.63379
     2013.71887        15.34822        22.28160
     2013.72210        11.58877        11.18639
     2013.72499        17.91174        16.87078
     2013.72711         2.63227        14.27063
     2013.73267         8.95424        13.58137
     2013.73654       -25.18934       153.08544
     2013.73852        33.39655        37.12215
     2013.74139        -0.47155        10.24637
     2013.74393         9.42088        11.79117
     2013.74634         3.64869        11.63830
     2013.74919        -0.19247        16.53017
     2013.75183        -1.56663        16.42826
     2013.75467         2.61114        18.28684
     2013.75763       -14.32755       123.88308
     2013.76044       -14.86192        16.63208
     2013.76331        -0.61901        13.95416
     2013.76571        21.57378        23.54078
     2013.76793        19.21177       116.88186
     2013.77091        -6.56283        18.24662
     2013.77667        -6.28198        14.53212
     2013.77978         8.26404        22.34329
     2013.78234         9.90051        57.47811
     2013.78454       -25.08158        23.26588
     2013.78739       -13.63976        20.35462
     2013.79001         8.41202        61.62708
     2013.79286         5.79281        17.14165
     2013.79564       -16.52771        20.45117
     2013.79885        -9.45127        14.35109
     2013.80147        14.81151        22.64769
     2013.80351        30.49467        63.54601
     2013.80713         7.67495        14.75204
     2013.80925        -1.07750        18.37133
     2013.81205         2.39709        10.74253
     2013.81479        -0.36461        20.95002
     2013.81803         0.74394        10.51457
     2013.82067         7.45580        11.32988
     2013.82328         8.85455        12.50725
     2013.82542        24.98519        97.69254
     2013.82843         7.82771        16.24857
     2013.83118        -4.75292        35.38693
     2013.83396         7.64956        17.91271
     2013.83674        -7.15094        14.06949
     2013.83986        14.29209        19.28989
     2013.84211         3.44418        11.76033
     2013.84549       -13.01761        23.58637
     2013.84782         9.14884        29.68243
     2013.85074        -1.21502        12.06071
     2013.85352        13.60850        11.84883
     2013.85641         3.85545         9.76094
     2013.85904        -6.05372         8.95904
     2013.86133        -2.09244        10.44752
     2013.86437       -19.96677        17.31598
     2013.86710       -11.86048        14.18481
     2013.86999         2.74351        12.07814
     2013.87248         8.66568        16.18822
     2013.87553         7.19740         9.83201
     2013.87821         7.36645        11.83274
     2013.88084         2.57428        15.93746
     2013.88332         7.86941        11.69328
     2013.88664        16.74133        25.75874
     2013.88924         4.23404        15.60088
     2013.89128         8.73420        65.32146
     2013.89403        43.72457       110.31646
     2013.89747         0.85102        23.76472
     2013.90066         2.53636        36.12715
     2013.90247         9.47750        44.83542
     2013.90511        -0.76063        20.29964
     2013.90842         0.10024         9.79581
     2013.91103         0.25997         9.25137
     2013.91371        -7.25900        10.21553
     2013.91649        -5.02748        10.29331
     2013.91925        15.77694        12.95916
     2013.92204        -2.73752        16.81580
     2013.92459         8.31691        13.46605
     2013.92703        10.29189        20.61880
     2013.93564        -4.72342        11.72010
     2013.93789         1.81569        17.97306
     2013.94082        -1.19413        25.73863
     2013.94417        15.82793       524.37615
     2013.94666       -12.43487        61.99317
     2013.94896       -22.95755        23.77947
     2013.95224         7.29721        12.99000
     2013.95482        -1.02119        11.45727
     2013.95748        -0.91925        11.31513
     2013.95995         6.49389        13.89516
     2013.96314         4.07922        21.58296
     2013.96502         4.58164        16.79032
     2014.01770       -10.73857        12.61051
     2014.02328        -8.20047        13.96355
     2014.02613        -5.96167        16.64415
     2014.02889        -2.47625        12.07546
     2014.03152         0.98456         9.10655
     2014.03414        -3.48265        10.09484
     2014.03683        -8.39757        10.13507
     2014.03984        -9.68505        12.34902
     2014.04197       -13.33748        11.04023
     2014.04515        -1.71416        12.68292
     2014.04807        -7.29605         9.60271
     2014.05065        -7.68547        10.14044
     2014.05338        -3.86516        13.94343
     2014.05603       -18.22426        12.14787
     2014.05880       -11.58282        12.88809
     2014.06176        -9.44949        17.43935
     2014.06424       -17.44436        12.95380
     2014.06720        -1.80405        11.89175
     2014.11311         0.36729        13.39498
     2014.11633        -0.04822        12.75801
     2014.11921       -12.45929        13.34402
     2014.12197        -8.24086        12.74863
     2014.12451        -1.78947        10.64732
     2014.12741         4.84556        12.18676
     2014.12970        -5.34612        10.26381
     2014.13264        -4.13792        10.23967
     2014.13596        12.70700        29.38205
     2014.13833        19.63668       116.80543
     2014.14097         3.08754        10.40997
     2014.14384        -3.07658        10.61916
     2014.14631        -1.95345        11.59673
     2014.14922        -7.60339         9.96075
     2014.15178        17.13414       135.02657
     2014.15461        -3.01614        33.51359
     2014.15741         5.04344        17.18054
     2014.16021        15.69700        30.63184
     2014.16302         4.40465         9.21382
     2014.16564        -4.18260         8.63855
     2014.16837        -4.55831         9.02877
     2014.17086        -3.94012        10.06802
     2014.17391       -11.10440        10.17396
     2014.17658        -6.91539         9.56650
     2014.17943         0.99240        10.97586
     2014.18206         0.71324         8.79008
     2014.18477        -2.29960         8.97647
     2014.18704       -12.21637        11.34061
     2014.19366        14.61139        55.95745
     2014.19566         4.77037        13.41241
     2014.19852        -6.05179        10.33354
     2014.20124         1.87745         9.83067
     2014.20400       -13.35814         9.90845
     2014.20667       -13.20215        10.41668
     2014.20940        -3.98387        10.67817
     2014.21228        -1.14194        10.95038
     2014.21492        -0.18106         9.71401
     2014.21766         1.47926        10.11496
     2014.22039        -3.84647        10.49579
     2014.22317        -1.42297         9.79178
     2014.22587        -3.30586        10.19810
     2014.22871         1.00290        19.89333
     2014.23100        -0.19781        11.57796
     2014.23380        -0.64920         9.75558
     2014.23680        -6.43072        10.16055
     2014.23959        -1.90218         9.07436
     2014.24230        -7.25702         8.82360
     2014.24503       -10.22574        10.11362
     2014.24769        -2.58279        11.28965
     2014.25048        -0.59223        10.77740
     2014.25317       -23.06414        26.59283
     2014.25598        -7.98551        10.11496
     2014.25872        -6.28518         9.45252
     2014.26146        -2.51688         9.22992
     2014.26415       -10.87578        11.04962
     2014.26680        -2.96986        11.04425
     2014.26968        -4.72994        11.05364
     2014.27244        -2.54550        10.98659
     2014.27530        -0.99566        11.70267
     2014.27787        -0.85910         9.15616
     2014.28063        -5.50071         9.84542
     2014.28282        -3.15588        12.03255
     2014.28565         8.98987        16.19493
     2014.28855       -10.45509        15.93880
     2014.29131         9.70832        62.68913
     2014.29373         2.44119        16.13056
     2014.29717         1.48964        11.57796
     2014.29981        -5.97248        10.32683
     2014.30199        -5.69472        13.18444
     2014.30488       -20.93771        11.61282
     2014.30770       -16.18604        12.49384
     2014.31016        -9.54597        11.79520
     2014.31293        -7.49851        18.43301
     2014.31619        -3.92886        10.80958
     2014.31893       -13.67857        11.14080
     2014.32114       -16.28061        13.21126
     2014.32413        19.84980        38.89357
     2014.32667        -6.77175        21.31074
     2014.32938        -7.21259        11.78849
     2014.33245        10.99621       355.73752
     2014.33570        -8.78817        11.75631
     2014.33808       -11.05647         9.46324
     2014.34036        -4.31021        11.44788
     2014.34309        -9.15097        12.53407
     2014.34611         6.01460        35.31318
     2014.34900        -5.31639       147.97232
     2014.35465       -13.04599        13.53980
     2014.35728       -11.26715         9.63087
     2014.35943       -12.22150        13.76643
     2015.82044       -18.17243        16.46849
     2015.82203       -23.94425         7.45849
     2015.82477       -21.81495         7.47056
     2015.82751       -26.80664         7.64891
     2015.83025       -17.13333         7.48531
     2015.83299       -25.62203         7.77362
     2015.83572       -29.31572         7.48531
     2015.83846       -25.02841         7.46788
     2015.84120       -30.74611         7.36730
     2015.84394       -30.17480         7.39949
     2015.85489       -25.88158         7.38742
     2015.85763       -30.83827         7.37535
     2015.86036       -28.00996         7.51883
     2015.86310       -25.16366         7.45581
     2015.86584       -29.24735         7.48531
     2015.87679       -33.37713         7.44374
     2015.87953       -34.26982         7.58320
     2015.88227       -33.22251         7.49067
     2015.88774       -33.39090         7.37669
     2015.89048       -25.17059         7.34585
     2015.89322       -29.90729         7.48129
     2015.89596       -27.93598         7.41290
     2015.89869       -27.09667         7.41290
     2015.90691       -32.93876         7.40619
     2015.90965       -34.45245         7.81117
     2015.91512       -34.49784         7.29087
     2015.92060       -29.25922         7.42497
     2015.93155       -34.98600         7.62745
     2015.93429       -30.59969         7.63282
     2015.93702       -26.64839         7.64489
     2015.93976       -29.78408         7.73339
     2015.94250       -28.48777         7.53761
     2015.94798       -27.69516         7.60734
     2015.95071       -28.71985         7.40485
     2015.95345       -33.21455         7.32037
     2015.95619       -31.38124         7.41022
     2015.95893       -34.47393         7.68243
     2015.96167       -32.90963         7.54431
     2015.96440       -33.60232         7.37133
     2015.96714       -32.03802         7.46385
     2015.96988       -32.02671         7.33914
     2015.97262       -17.28640         8.19200
     2015.97535       -31.48710         7.35658
     2015.97809       -33.42779         7.37669
     2015.98083       -31.72748         7.40619
     2015.98357       -41.08618         8.03377
     2015.99178       -34.77726         7.38071
     2015.99435       -36.64472         8.07534
     2016.04928       -34.55183         7.34317
     2016.05113       -36.81451        13.16299
     2016.05784       -41.35833         8.55004
     2016.06023       -35.53660         7.30428
     2016.06297       -31.37429         7.21309
     2016.06570       -29.64499         7.35255
     2016.06844       -28.28668         7.46117
     2016.07118       -29.72937         7.65830
     2016.07392       -33.65807         7.51213
     2016.07621       -19.55177         9.26076
     2016.13524       -14.71344        16.68975
     2016.13689       -22.14302         7.39546
     2016.13958       -18.96591         7.52688
     2016.14147       -26.77645        13.76508
     2016.14529       -19.60927         7.78435
     2016.14709       -14.74717        22.97489
     2016.17527       -15.40148         7.57381
     2016.17796        -7.09143         7.48933
     2016.17948       -16.93659        24.94343
     2016.18659       -20.16363        20.55309
     2016.18891       -11.95420         7.44508
     2016.19164       -15.08689         7.18627
     2016.19438        -8.68159         7.17957
     2016.19712       -12.69428         7.25600
     2016.19986       -12.72198         7.50006
     2016.20260       -15.65067         7.47324
     2016.20533       -16.99436         7.93722
     2016.20807       -14.74006         7.35792
     2016.21081       -17.14075         7.34183
     2016.21355       -16.19544         7.33244
     2016.21629       -14.07514         7.56577
     2016.21902       -15.08783         8.64927
     2016.22176       -10.80352         7.16482
     2016.22450       -16.41022         7.34183
     2016.22724       -23.89891         7.42094
     2016.22997       -13.45161         7.18895
     2016.23271       -12.90230         7.20236
     2016.23545       -17.57499         7.30160
     2016.23819       -16.98369         7.09777
     2016.24093       -10.31838         7.19298
     2016.24366       -12.54507         7.21175
     2016.24640        -9.07977         7.54565
     2016.24914        -8.99946         7.26405
     2016.25188        -7.94215         7.34317
     2016.25462        -8.77685         7.36596
     2016.25735       -17.71454         7.30964
     2016.26009       -14.38824         7.28416
     2016.26283       -14.93993         7.26941
     2016.26541       -11.36033         7.62343
     2016.27766         8.75273        19.74582
     2016.27926       -12.46809         7.32707
     2016.28199       -20.44578         7.70389
     2016.28473        -6.77248         7.29757
     2016.28747       -11.95917         7.30830
     2016.29021       -13.61687         7.23187
     2016.29295       -12.24556         7.24796
     2016.29568        -9.73425         7.32707
     2016.29842        -7.26795         7.44508
     2016.30116       -10.36264         7.91442
     2016.30390       -16.58833         7.30562
     2016.30663        -2.97803         7.38071
     2016.30937        -8.16072         7.19566
     2016.31211       -11.54041         7.22114
     2016.31485        -7.15711         7.25064
     2016.31759        -5.94280         7.21846
     2016.32032       -10.92850         7.25869
     2016.32306       -11.30819         7.23455
     2016.32580       -12.04788         7.25869
     2016.32854        -9.88658         7.15811
     2016.33128        -9.13327         7.31501
     2016.33401        -6.86296         7.31769
     2016.33675        -6.36866         7.37803
     2016.33949        -3.25735         7.36999
     2016.34223        -1.56804         7.28819
     2016.34496        -3.79274         7.45179
     2016.34770         3.80157         7.42094
     2016.35044         1.70787         7.80312
     2016.35318        -7.33982         7.23723
     2016.35592       -10.81051         8.73644
     2016.35865       -10.71721         7.16750
     2016.36139        -6.74690         7.36194
     2016.36413        -1.61259         7.33512
     2016.36687         6.80971         7.27210
     2016.36961         6.58002         7.25466
     2016.37234         6.39832         8.73644
     2016.37508        -0.03437         7.28953
     2016.37782        -7.95206         7.34585
     2016.38056         0.08724         7.38474
     2016.38329         4.37455         7.18895
     2016.38603        -0.56514         7.17152
     2016.38877         6.71916         7.17689
     2016.39151         3.60247         7.20102
     2016.39425         1.72778         7.20236
     2016.39698         6.77708         7.27746
     2016.39972         7.08039         7.20102
     2016.40246        -1.35731         7.34853
     2016.40520        -4.74700         7.29489
     2016.40794        -5.05969         7.20773
     2016.41067        -5.52139         7.26405
     2016.41341         2.50092         7.24796
     2016.41615        -1.40877         7.23321
     2016.41889        -1.03347         7.37401
     2016.42162         3.91084         7.30160
     2016.42436        -2.11585         7.20505
     2016.42710         2.71945         7.15811
     2016.42984         0.96476         7.26941
     2016.43258         9.01306         7.21443
     2016.43531         8.48537         7.39144
     2016.43805        10.18168         7.21175
     2016.44079         4.40598         7.24528
     2016.44354         1.53535         7.19298
     2016.44626         0.16960         7.18359
     2016.44900         1.50390         7.20102
     2016.45174         2.34521         7.22248
     2016.45448         6.47252         7.21980
     2016.45722         2.40082         7.14873
     2016.45995         8.14313         7.17018
     2016.46269        -0.34157         7.18225
     2016.46543         2.28974         7.28550
     2016.46817         2.75605         7.29623
     2016.47091         6.82935         7.26539
     2016.47364         3.33966         7.21443
     2016.47638         1.61297         7.26271
     2016.47912         2.92227         7.42631
     2016.48186         3.80758         7.63148
     2016.48459         4.67389         7.26003
     2016.48733         0.03319         7.24259
     2016.49007         3.52550         7.13397
     2016.49281         6.42180         7.13666
     2016.49555         3.44611         7.25064
     2016.49828         2.26942         7.27075
     2016.50102         7.33672         7.25064
     2016.50376         3.09203         7.43167
     2016.50650         6.55134         7.29087
     2016.50924         6.97764         7.24393
     2016.51197        -1.14205         7.16616
     2016.51471        10.39226         7.28282
     2016.51745         3.84756         7.46788
     2016.52019         4.48387         7.15945
     2016.52292         6.12317         7.15141
     2016.52566         5.64748         7.25198
     2016.52840         4.40879         7.24393
     2016.53108         5.11184         7.32171
     2016.53388         4.54140         7.16616
     2016.53661         3.00771         7.91710
     2016.53935         3.79601         7.16079
     2016.54209         7.29932         7.11520
     2016.54483        12.26463         7.28819
     2016.54757         2.03593         7.21175
     2016.55030         3.12924         7.38608
     2016.55304         6.47854         7.20505
     2016.55578         3.31885         7.36730
     2016.55852        10.52616         7.18761
     2016.56125         6.92246         7.23321
     2016.56399         7.94077         7.15275
     2016.56673         5.41808         7.33914
     2016.56947         3.86638         7.34719
     2016.57221        14.60469         7.13532
     2016.57494        13.52400         7.41960
     2016.57768         9.82430         7.21712
     2016.58042        12.42161         7.12593
     2016.58316         7.29291         7.12191
     2016.58590         8.22622         7.26673
     2016.58863         7.50153         7.15543
     2016.59129         8.87545         7.55638
     2016.60346         3.50617        17.92881
     2016.60506         7.25137         7.20639
     2016.60780         8.14467         7.10045
     2016.61054         5.86798         7.12057
     2016.61327         6.30228         7.14202
     2016.61601         9.28459         7.18895
     2016.61875         8.86090         7.31903
     2016.62149        10.80320         7.19298
     2016.62423        10.31151         7.25198
     2016.62696         7.91582         7.20102
     2016.62970         8.45812         7.30160
     2016.63244         6.09343         7.36194
     2016.63518        11.26574         7.14738
     2016.63791        15.34404         7.41960
     2016.64065        17.97935         7.15945
     2016.64339        10.16565         7.10045
     2016.64613        12.79896         7.12861
     2016.64887         6.75327         7.24796
     2016.65099        14.71082         9.66573
     2016.66656        30.00179        25.73729
     2016.66803        11.37641         7.30026
     2016.67077        11.67972         7.40887
     2016.67351        10.83202         7.11386
     2016.67624        13.50333         7.12325
     2016.67898        15.31364         7.14068
     2016.68172        15.49594         7.20505
     2016.68446        14.81625         7.41826
     2016.68720         8.98256         7.46788
     2016.68993        10.50086         7.20102
     2016.69267         8.39317         7.25466
     2016.69541        13.20848         7.19834
     2016.69815        14.09578         7.12325
     2016.70089        11.62909         7.08168
     2016.70362         9.59339         7.26539
     2016.70636         9.34970         7.57515
     2016.70910        10.47101         7.59795
     2016.71184        16.92131         7.22382
     2016.71457        13.84062         7.19298
     2016.71731        13.08593         7.24930
     2016.72005        11.74823         7.12861
     2016.72279        13.67554         7.10581
     2016.72553        14.37585         7.28416
     2016.72826         9.02415         7.43033
     2016.73100         7.83946         7.12057
     2016.73374         9.20976         7.08302
     2016.73648        13.69807         7.19700
     2016.73921         2.98038         7.34987
     2016.74195        11.05768         7.15007
     2016.74469         8.71499         7.08704
     2016.74743        11.48730         7.14202
     2016.75017        15.70460         7.18225
     2016.75290        14.07591         7.20236
     2016.75564        16.93721         7.17689
     2016.75838        12.57352         7.22650
     2016.76112        16.01483         7.06961
     2016.76386         9.46013         7.11788
     2016.76659         9.76844         7.31232
     2016.76933         7.30175         7.38071
     2016.77207         7.17405         7.26539
     2016.77481        11.12336         7.15945
     2016.77754         6.89767         7.04011
     2016.78028         6.14697         7.12191
     2016.78302         3.60028         7.28282
     2016.78576         1.90958         7.54565
     2016.78850        12.76589         7.40351
     2016.79123        12.24620         7.30830
     2016.79397         8.95950         7.10850
     2016.79671         7.74381         7.15811
     2016.79945         1.99412         7.18895
     2016.80219       -11.46458         7.34451
     2016.80492         5.89773         7.27210
     2016.80766         6.02904         7.15945
     2016.81040        -1.27866         7.20773
     2016.81314         8.00465         7.34719
     2016.81587         2.32695         7.26673
     2016.81861        -5.45574         7.19968
     2016.82135         4.72757         7.21980
     2016.82409         6.28287         7.16348
     2016.82683         2.50818         7.12325
     2016.82956         1.22149         7.13532
     2016.83230         3.26979         7.21846
     2016.83504        -4.08490         7.19030
     2016.83778         1.49041         7.15677
     2016.84052        -3.68229         7.30964
     2016.84325         1.18002         8.87053
     2016.84599        -0.95868         7.39278
     2016.84871         4.96752         7.98415
     2016.85152         3.86017         7.32171
     2016.85420         9.58924         7.18761
     2016.85694         2.56055         7.29891
     2016.85968         0.05686         7.44106
     2016.86242        -0.55784         7.28953
     2016.86516         3.51447         7.39546
     2016.86789         1.04178         7.20505
     2016.87063         7.17508         7.37133
     2016.87337         6.03939         7.35524
     2016.87611         4.13469         7.10716
     2016.87885         4.97200         7.11386
     2016.88158        -0.34169         7.10716
     2016.88432         8.68861         7.26673
     2016.88706         1.43892         7.17420
     2016.88980         2.97723         7.21712
     2016.89253         4.73953         7.20102
     2016.89527        -4.85416         7.17152
     2016.89801        -1.81885         7.14470
     2016.90075        -3.03655         7.34853
     2016.90349        -2.50324         7.31635
     2016.90622         2.86206         7.31769
     2016.90896         4.36537         7.21712
     2016.91170         3.08668         7.08838
     2016.91444         3.40898         7.23589
     2016.91718        -0.82871         7.38742
     2016.91991        -7.46640         7.36999
     2016.92265        -0.11610         7.19298
     2016.92539        -0.14479         7.11118
     2016.92813        -6.47248         7.11520
     2016.93086        -2.34518         7.21980
     2016.93360        -2.78287         7.19700
     2016.93908         1.17074         7.43301
     2016.94182         0.75405         7.17554
     2016.94455        -5.95765         9.71937
     2016.94729         2.91666         7.38474
     2016.95003         0.28197         8.78739
     2016.95277         0.96727         7.28685
     2016.95551         0.12058         7.16214
     2016.95824         4.69489         7.20236
     2016.96098         2.98719         8.92149
     2016.96372        -2.91350         7.32573
     2016.96646         1.62580         7.28282
     2016.96919         3.10711         7.51347
     2016.97193         2.18242         7.94660
     2016.97467         4.28172         7.53493
     2016.97741        -3.50097         7.32707
     2016.98015         5.55034         7.30428
     2016.98288         1.56264         7.22784
     2016.98562         4.46995         7.17957
     2016.98836        -0.51474         7.21175
     2016.99110         7.55356         7.25064
     2016.99384        10.45187         8.15043
     2016.99657         2.05317         7.31769
     2016.99931         4.32548         7.17018
     2017.00211         4.12704         7.20773
     2017.00479         1.91809         7.15275
     2017.00752        -3.74760         7.21175
     2017.01026        -4.95929         7.17018
     2017.01300         5.01801         7.23321
     2017.01574         4.99132         7.14336
     2017.01848         3.84663         7.13532
     2017.02121         1.91193         7.16616
     2017.02395         4.95624         7.30026
     2017.02669         2.31554         7.35255
     2017.02943         7.03285         7.28685
     2017.03216         2.22016         7.23052
     2017.03490        -0.25854         7.17823
     2017.03764        -2.76923         7.17957
     2017.04038        -1.93092         7.17554
     2017.04312         5.47738         7.17823
     2017.04585         1.98569         7.66500
     2017.04859        -1.15800         7.61270
     2017.05133         8.21830         7.25600
     2017.05407        10.01261         7.27746
     2017.05681        14.80391         7.16616
     2017.05954        -1.81478         7.29757
     2017.06228         2.89653         7.21443
     2017.06502        -0.93317         7.16079
     2017.06776        -1.91186         7.21980
     2017.07049        -2.24055         7.18493
     2017.07323        -2.24325         7.23991
     2017.07597        -0.95394         7.18493
     2017.07871         0.43437         7.50945
     2017.08145        -2.03333         7.38608
     2017.08418        -3.49502         7.17957
     2017.08692        -1.56472         7.17286
     2017.08966        -2.25241         7.17554
     2017.09240        -3.39610         7.25734
     2017.09514        -4.77980         7.27344
     2017.09787         0.61451         7.23991
     2017.10061         4.27782         7.53358
     2017.10335         0.40412         7.33244
     2017.10609        -5.02557         7.21712
     2017.10882        -4.87326         7.48263
     2017.11156         3.05304         7.43301
     2017.11430        -5.43565         7.21577
     2017.11704        -5.70835         7.18091
     2017.11978        -5.19604         7.20505
     2017.12251        -0.35373         7.28953
     2017.12525        -5.38243         7.28014
     2017.12799         4.99888         7.30428
     2017.13347         5.23949         7.17018
     2017.13620         1.99880         7.15543
     2017.13894        -1.41590         7.19566
     2017.14168        -4.47959         7.22382
     2017.14442        -8.30728         7.21980
     2017.14715        -4.98898         7.23857
     2017.14989        -2.91767         7.26003
     2017.15263         3.06064         7.20639
     2017.15537         1.59294         7.23052
     2017.15811        -5.78175         7.48933
     2017.16084        -4.38144         7.36865
     2017.16358        -7.11114         7.25466
     2017.16632        -2.23683         7.23455
     2017.16906        -6.20653         7.24393
     2017.17180         0.90678         7.25198
     2017.17453        -1.54091         7.23857
     2017.17727        -4.69961         7.38742
     2017.18001        -6.67530         7.20505
     2017.18275        -1.29799         7.23857
     2017.18548       -10.83669         7.27478
     2017.18822        -4.80338         7.23991
     2017.19096        -8.77107         7.54968
     2017.19370        -2.29577         7.26271
     2017.19644        -6.75546         7.21175
     2017.19917        -4.83716         7.20639
     2017.20191        -6.80785         7.26673
     2017.20465        -5.09754         7.51079
     2017.20739        -3.14924         7.25198
     2017.21013        -2.30293         7.26807
     2017.21286         0.38538         7.21041
     2017.21560        -2.01132         7.26539
     2017.21834        -3.55301         7.27075
     2017.22108        -5.18270         7.26405
     2017.22381        -4.45740         7.39546
     2017.22655        -5.63809         7.43838
     2017.22929        -4.42979         7.22248
     2017.23203        -4.77848         7.24796
     2017.23477        -7.93817         7.22382
     2017.23750       -11.03587         7.19432
     2017.24024        -9.33356         7.28416
     2017.24298        -9.32125         7.25064
     2017.24572        -2.35895         7.24393
     2017.24846        -7.44664         7.20907
     2017.25119        -7.39933         7.37267
     2017.25393        -4.24903         7.15007
     2017.25667        -4.00872         7.29757
     2017.25941       -12.48742         7.24125
     2017.26214        -6.06811         7.20505
     2017.26488         3.31620         7.33378
     2017.26762        -4.07650         7.18761
     2017.27036        -2.91319         7.15007
     2017.27310       -10.18388         7.61807
     2017.27583        -4.72958         7.24662
     2017.27857        -6.77527         7.22382
     2017.28131       -11.26096         7.19834
     2017.28405       -11.38266         7.18627
     2017.28679        -8.73635         7.15141
     2017.28952        -3.60405         7.15275
     2017.29226        -0.80274         7.33512
     2017.29500       -11.43543         8.74448
     2017.29774        -6.68813         7.26137
     2017.30047       -11.49182         7.12727
     2017.30321        -6.71251         7.23589
     2017.30595        -5.69721         7.27344
     2017.30869        -8.18490         7.25198
     2017.31143        -6.69559         7.20907
     2017.31416        -3.76029         7.16616
     2017.31690        -7.63898         7.48397
     2017.31964        -5.92668         7.36194
     2017.32238       -10.24337         7.33646
     2017.32512        -8.32706         7.17152
     2017.32785       -11.68076         7.29757
     2017.33059       -12.41045         7.15945
     2017.33324        -8.63355         7.42765
     2017.43830        -0.78529        14.11910
     2017.44010         5.37980         7.17420
     2017.44284         5.01511         7.30428
     2017.44558         3.76142         7.27612
     2017.44832         4.49872         7.27746
     2017.45106         8.43303         7.32171
     2017.45379         1.38334         7.36194
     2017.45653         3.14264         7.69182
     2017.45927         2.82195         7.29355
     2017.46200         3.69723         7.30294
     2017.46475         5.45756         7.36328
     2017.46748         2.00387         7.34183
     2017.47022         5.64117         7.39278
     2017.47296         3.03948         7.24528
     2017.47570         3.36479         7.21712
     2017.47843         3.72209         7.23589
     2017.48117         0.55340         7.44642
     2017.48391         4.58071         7.19834
     2017.48665         5.90101         7.38876
     2017.48939         7.26932         7.28416
     2017.49212         6.17763         7.27210
     2017.49486         3.68793         7.28819
     2017.49760         7.98124         7.30964
     2017.50034        11.23054         7.26137
     2017.50308        10.42485         7.27880
     2017.50581         9.37716         7.24125
     2017.50855         8.92846         7.23723
     2017.51129         1.08177         7.39681
     2017.51403         8.28908         7.44240
     2017.51676         7.93138         7.21980
     2017.51950         5.46769         7.33646
     2017.52224        10.60099         7.22918
     2017.52498         7.19130         7.29221
     2017.52772         5.10861         7.51749
     2017.53045         5.40191         7.22918
     2017.53319         8.26522         7.19834
     2017.53593         8.90253         7.27210
     2017.53867         7.90483         7.23589
     2017.54141        15.49814         7.21175
     2017.54414        11.75745         7.15141
     2017.54688        10.67375         7.29489
     2017.54962         4.82606         7.38205
     2017.55236         5.30036         7.25869
     2017.55509        12.17867         7.29087
     2017.55783        10.36698         7.43301
     2017.56057         7.63528         7.31501
     2017.56331         7.98259         7.28416
     2017.56605         8.37590         7.30160
     2017.56878         4.09520         7.36596
     2017.57152         8.49351         7.26137
     2017.57426         5.98782         7.21175
     2017.57700         2.88812         7.78837
     2017.57974         7.92343         7.28148
     2017.58247         8.37373         7.34048
     2017.58521         4.85004         7.21309
     2017.58795         4.78935         7.32037
     2017.59069         7.87665         7.49470
     2017.59342        10.52096         7.28819
     2017.59616         5.68127         7.15275
     2017.59891         9.15462         7.25600
     2017.60164         7.81188         7.17286
     2017.60438         6.01619         7.26003
     2017.60711         6.60449         7.54834
     2017.60985        11.20280         7.31769
     2017.61259         8.96110         7.24528
     2017.61533        13.09041         7.42765
     2017.61807        11.49276         7.27210
     2017.62080        14.31502         7.32037
     2017.62354        13.58133         7.40619
     2017.62628        13.55464         7.36730
     2017.62902        11.07294         7.74680
     2017.63175         6.58225         7.33378
     2017.63395         3.37510         9.28221
     2017.76448        43.32185       161.81518
     2017.76591        15.00326         7.40753
     2017.76865        12.90257         7.25198
     2017.77138         7.80587         7.37535
     2017.77412        11.74918         7.34317
     2017.77686        10.73949         7.24393
     2017.77960        11.52279         7.31367
     2017.78234        11.10510         7.26807
     2017.78507         8.83741         7.05352
     2017.78781         8.77171         7.20371
     2017.79055         7.82802         7.38340
     2017.79329         7.55032         7.51347
     2017.79603        14.77463         7.40083
     2017.79876        10.70094         7.34719
     2017.80150        11.47924         7.32305
     2017.80424        11.98155         7.24662
     2017.80698         8.07986         7.54968
     2017.80971         6.64916         7.30160
     2017.81245         6.65047         7.24662
     2017.81519        12.21578         7.54699
     2017.81793         8.65508         7.18895
     2017.82067         4.96641         7.50542
     2017.82340         8.67269         7.13263
     2017.82614         6.24400         7.18225
     2017.82888         4.77331         7.15007
     2017.83162        13.93861         7.33244
     2017.83436        11.33392         7.19432
     2017.83709        13.74523         7.40083
     2017.83983        -0.72047         7.11654
     2017.84257         8.48684         7.11118
     2017.84531        -3.05985         7.18627
     2017.84804        -0.47255         7.33780
     2017.85078         6.95276         7.21846
     2017.85352        11.54806         7.19566
     2017.85900         7.41368         7.38742
     2017.86173         6.52398         7.34719
     2017.86447         5.83629         7.28148
     2017.86721         9.58260         7.41692
     2017.86995         8.04290         7.16079
     2017.87269         7.61221         7.19298
     2017.87542         8.32952         7.25064
     2017.87816        14.71382         7.15275
     2017.88090        10.16613         7.28282
     2017.88364        11.99043         7.26807
     2017.88637         8.85674         7.29623
     2017.88910         3.85200         7.51213
     2017.89185         4.04835         7.49336
     2017.89459        10.95166         7.51079
     2017.89733        12.50897         7.25600
     2017.90006         7.33827         7.20236
     2017.90280         2.79858         7.46251
     2017.90554        11.72188         7.19164
     2017.90828         1.93719         7.24528
     2017.91102         8.75750         7.32842
     2017.91375         5.15880         7.39546
     2017.91649         5.40111         7.23187
     2017.91923         5.67842         7.22516
     2017.92197         6.65872         7.19030
     2017.92470         3.51603         7.28685
     2017.92744         0.85034         7.22382
     2017.93018         2.19564         7.15275
     2017.93287         1.80773         7.44508
