# ================= DQRFIT RESULTS ================
# INPUT FILE: series/WACS.rad
# OUTPUT: LDETRENDED
# FILTER FUNCTION: f(t)
# f(t)=+line(t)+annual(t)
# line(t)=+P 1+P 2*t
# annual(t)=+P 3*sin(2*pi*t+P 4)
# heav(t)=(t<0?0:1)
# TOTAL OBSERVATIONS MTOT= 2204
# INITIAL TIME INTERVAL= 2021.2457 - 2015.0034 =  6.2423
# TOTAL OBSERVATIONS AFTER PREFILTER M= 2202
# TIME-SPAN= 2021.2457 - 2015.0034 =  6.2423
# OBSERVATIONS: USED M=  2202 REJECTED MTOT-M=     2 %USED=   99.9093
# N=  4 PARAMETERS
# MAXSIG= 175.00000
# MAXRES=  18.03231
# SCALE FACTOR FOR LENGTHS: SCL=  10.00000
# SCALE FACTOR FOR SIGMAS: SCLSIG=   1.00000
# CHI^2=   1621.473 DOF=  2198 CHI^2/DOF=   0.73770
# RMS=      4.897 SDEV=      4.898 MEAN=    0.00682
#  P #       PARAMETER +-    SIGMA %error PARAMETER NAME
# P 1 =      2994.32307 +-  112.072   3.74 YZERO                              
# P 2 =        -1.48557 +-    0.056   3.74 SLOPE                              
# P 3 =         5.99444 +-    0.142   2.38 ANNUAL AMPLITUDE                   
# P 4 =        -2.75547 +-    0.031   1.13 ANNUAL PHASE                       
#       T            LDETRENDED       SIG_OBS
     2015.00342        -3.75571         4.76860
     2015.00616       -12.81365         4.67841
     2015.00889       -10.78158         4.77804
     2015.01163        -5.43751         4.82185
     2015.01437        -8.88745         4.78663
     2015.01711        -5.42738         4.80037
     2015.01984         0.79769         4.78749
     2015.02258        -2.47524         4.87166
     2015.02532        -0.65318         4.81755
     2015.02806        -2.96211         4.79780
     2015.03080        -5.39804         4.76860
     2015.03353        -5.68997         4.93522
     2015.03627        -2.55591         4.75657
     2015.03901        -0.63684         4.80209
     2015.04175         6.53223         4.83044
     2015.04449        -7.28171         4.86307
     2015.04722         4.89636         4.95841
     2015.04996        -2.87557         4.79780
     2015.05270        -7.83350         4.70074
     2015.05544        -9.17944         4.72823
     2015.05817        -1.47437         4.77804
     2015.06091        -2.64330         4.71534
     2015.06365         2.93077         5.01510
     2015.06639        -0.86217         4.72222
     2015.06913        -5.16010         4.71792
     2015.07186        -3.70303         4.81240
     2015.07460        -3.71597         4.75657
     2015.07734       -10.79190         4.70418
     2015.08008       -11.89183         4.70246
     2015.08282        -4.77276         4.70676
     2015.08555        -2.82770         4.78148
     2015.08829        -0.00563         4.81068
     2015.09103        -2.48856         4.74111
     2015.09377        -4.61849         4.77461
     2015.09650         1.00357         4.83387
     2015.09924         9.76564         4.81755
     2015.10198         6.40871         4.73682
     2015.10472        -1.84623         4.77461
     2015.10746         4.33984         4.73939
     2015.11019        -6.84009         4.85878
     2015.11293        -5.87502         4.76774
     2015.11567         1.04904         4.93866
     2015.11841        -6.52989         4.72909
     2015.12115        -0.45282         4.76087
     2015.12388        -7.91175         4.73252
     2015.12662       -10.63269         4.73682
     2015.12936        -3.61162         4.70761
     2015.13210        -8.62055         4.76945
     2015.13483        -0.69949         4.81498
     2015.13757        -5.19442         4.79866
     2015.14031        -4.19735         4.71191
     2015.14305        -5.71828         4.69902
     2015.14579        -7.16622         4.74970
     2015.14852        -3.07515         4.75571
     2015.15126        -2.13308         4.75399
     2015.15400        -5.06701         4.71792
     2015.15674         2.53005         4.79179
     2015.15948         2.01612         4.72307
     2015.16221         1.60619         4.75228
     2015.16495         2.47325         4.75657
     2015.16769        -2.62768         4.73510
     2015.17043        -1.39661         4.74111
     2015.17316        -2.45154         4.86136
     2015.17590        -5.43048         4.87596
     2015.17864        -2.32741         4.70676
     2015.18138         0.22766         4.71964
     2015.18412         0.57372         4.69215
     2015.18685         1.69479         4.76001
     2015.18959         4.10886         4.90602
     2015.19233         2.07593         4.87080
     2015.19507        -1.84101         4.74283
     2015.19780        -2.27994         4.72909
     2015.20054        -3.69487         4.76602
     2015.20328        -6.68880         4.68614
     2015.20602        -7.12174         4.84761
     2015.20876        -1.73467         4.72737
     2015.21149        -9.28960         4.74369
     2015.21423        -7.83054         4.89228
     2015.21697        -3.43247         4.85019
     2015.21971        -4.75140         4.70332
     2015.22245        -3.54033         4.72393
     2015.22518        -3.17627         4.71534
     2015.22792        -5.14920         4.69473
     2015.23066        -5.91513         4.71620
     2015.23340         4.22594         4.81068
     2015.23613        -3.61700         4.91203
     2015.23887        -0.44693         4.94982
     2015.24161         3.99514         4.94639
     2015.24435         3.59720         4.96185
     2015.24709         0.03727         4.86222
     2015.24982        -3.98366         4.73166
     2015.25256        -4.40959         4.74712
     2015.25530        -8.05953         4.68356
     2015.25804        -2.91646         4.69559
     2015.26078         0.40461         4.71277
     2015.26351        -1.12532         4.69988
     2015.26625         2.04174         4.75399
     2015.26899        -9.60519         4.69645
     2015.27173         2.99388         4.80725
     2015.27446        -2.67306         4.85019
     2015.27720        -3.50399         4.69645
     2015.27994        -8.63192         4.68786
     2015.28268        -0.08185         4.72479
     2015.28542        -7.20079         4.82958
     2015.28815        -9.17972         4.83215
     2015.29089        -3.03565         4.75228
     2015.29363        -5.30158         4.69645
     2015.29637        -3.65352         4.69215
     2015.29911        -1.63945         4.73080
     2015.30184         3.91662         4.86823
     2015.30458        -3.82332         4.67326
     2015.30732        -6.33825         4.63375
     2015.31006        -5.08018         4.61743
     2015.31279        -3.03711         4.62001
     2015.31553        -7.18905         4.65436
     2015.31827        -6.79598         4.60798
     2015.32101        -1.67991         4.63718
     2015.32375        -9.73984         4.63976
     2015.32648        -6.48378         4.69988
     2015.32922        -2.18871         4.80896
     2015.33196        -2.10464         4.63203
     2015.33470        -1.75958         4.61657
     2015.33744        -5.01951         4.52553
     2015.34017        -7.20044         4.71019
     2015.34291        -7.38437         4.62001
     2015.34565        -7.19431         4.61657
     2015.34839        -2.10324         4.65350
     2015.35112        -4.87617         4.59596
     2015.35386        -1.79211         4.62860
     2015.35660        -1.83304         4.68099
     2015.35934        -3.27997         4.69902
     2015.36208        -3.66690         4.66725
     2015.36481        -3.41684         4.54786
     2015.36755        -0.93877         4.56933
     2015.37029        -4.27070         4.57534
     2015.37303        -6.54863         4.61485
     2015.37577        -5.35757         4.57277
     2015.37850        -7.27150         4.75743
     2015.38124        -6.24543         4.55645
     2015.38398        -6.46937         4.55645
     2015.38672        -0.72930         4.61056
     2015.38945        -4.22323         4.60712
     2015.39219        -4.82416         4.62344
     2015.39493        -1.17210         4.59510
     2015.39767        -6.99603         4.54185
     2015.40041        -7.59896         4.57534
     2015.40314        -2.79489         4.76258
     2015.40588        -5.47383         4.65780
     2015.40862        -7.30076         4.62688
     2015.41136        -1.48569         4.62258
     2015.41410         1.24637         4.67841
     2015.41683        -2.67856         4.61485
     2015.41957        -0.75849         4.65694
     2015.42231        -0.36042         4.61657
     2015.42505        -7.64236         4.70074
     2015.42778        -4.59929         4.68528
     2015.43052         0.39778         4.62001
     2015.43326        -6.19115         4.61485
     2015.43600         1.56791         4.66381
     2015.43874         2.65998         4.58307
     2015.44147        -2.05095         4.80209
     2015.44421        -1.23189         4.58909
     2015.44695        -5.12682         4.64320
     2015.44969        -3.48375         4.62516
     2015.45243         1.43432         4.70074
     2015.45516         3.82738         4.60541
     2015.45790         3.02445         4.79522
     2015.46064         2.10152         4.72995
     2015.46338         6.23559         4.83130
     2015.46611         4.54365         4.65179
     2015.46885         4.60472         4.63375
     2015.47159         4.94079         4.68099
     2015.47433        -2.86915         4.73939
     2015.47707         9.13192         4.84418
     2015.47980         1.96999         4.71019
     2015.48254         5.06206         4.61485
     2015.48528         6.57912         4.70160
     2015.48802         1.69719         4.64320
     2015.49076        -4.81974         4.68356
     2015.49349         6.57333         4.73768
     2015.49623         3.32239         4.78663
     2015.49897         1.97946         4.72909
     2015.50171         3.88453         4.61743
     2015.50444         2.83359         4.57620
     2015.50707         1.46949         4.78148
     2015.51100        -2.09366        12.31229
     2015.51266         8.75080         4.60283
     2015.51540         5.87486         4.59768
     2015.51813         9.23893         4.71449
     2015.52087         9.19400         4.60626
     2015.52361        12.21907         4.75915
     2015.52635         4.62913         4.66639
     2015.52908        10.21520         4.62430
     2015.53182         5.25127         4.61314
     2015.53456         5.76833         4.63031
     2015.53730         8.17540         4.68099
     2015.54004         5.12447         4.77976
     2015.54277         5.73854         4.72393
     2015.54551        10.60260         4.72651
     2015.54825         8.02367         4.84074
     2015.55099         6.65974         4.69387
     2015.55373         9.24380         4.73768
     2015.55646        11.75887         4.74455
     2015.55920        11.26494         4.68271
     2015.56194        13.04901         4.77117
     2015.56468         8.51907         4.76602
     2015.56741         8.54814         4.71363
     2015.57015         4.20421         4.91976
     2015.57289         6.61828         4.84847
     2015.57563         5.55934         4.68099
     2015.57837         6.73741         4.66381
     2015.58110        10.41548         4.68185
     2015.58384        16.04054         4.80295
     2015.58658        14.79961         4.88455
     2015.58932        14.14868         4.81412
     2015.59206         3.88575         4.73338
     2015.59479         6.30381         4.72651
     2015.59753        15.38888         4.74798
     2015.60027        12.28295         4.84418
     2015.60301         6.80902         4.98504
     2015.60574        11.47008         4.77031
     2015.60848        12.39115         4.69645
     2015.61122        12.46222         4.71620
     2015.61396        17.19828         4.74111
     2015.61670        10.99435         4.73424
     2015.61943         9.39442         4.60455
     2015.62217         8.56749         4.59338
     2015.62491        13.36355         4.61314
     2015.62765        11.43462         4.66209
     2015.63039        13.37669         4.65007
     2015.63312        21.77276         4.78921
     2015.63586         9.57682         4.66639
     2015.63860         8.21089         4.61657
     2015.64134         8.66596         4.57706
     2015.64407        17.94602         4.70074
     2015.64681         6.16309         4.67583
     2015.64955        12.05316         4.65522
     2015.65229         8.02523         4.64062
     2015.65503        17.00729         4.67841
     2015.65776         2.30936         4.81841
     2015.66050        13.09943         4.87424
     2015.66324         1.95350         4.74798
     2015.66598        10.59556         4.80467
     2015.66872        13.70563         4.79350
     2015.67145        10.60370         4.63203
     2015.67419         7.43376         4.59424
     2015.67693        10.62583         4.58737
     2015.67967        19.09790         4.71191
     2015.68240         4.66697         4.57448
     2015.68514         3.49903         4.63547
     2015.68788         7.69010         4.58909
     2015.69062        11.89817         4.64749
     2015.69336         6.65924         4.78491
     2015.69609        11.19230         4.65522
     2015.69883        20.92437         4.73768
     2015.70157        12.14444         4.63031
     2015.70431        14.46950         4.62860
     2015.70705        10.83257         4.60884
     2015.70978        15.79764         4.64749
     2015.71252         9.09671         4.64577
     2015.71526        10.31477         4.55645
     2015.71800        15.09484         4.63890
     2015.72073        17.33791         4.63203
     2015.72347         5.28597         4.59252
     2015.72621        10.21204         4.63890
     2015.72895        -1.81189         4.62516
     2015.73169         5.01218         4.55129
     2015.73442         9.01724         4.67326
     2015.73716         7.35131         4.61314
     2015.73990         9.64138         4.68700
     2015.74264         7.16945         4.75314
     2015.74538        12.18151         4.73166
     2015.74811         2.68958         4.77890
     2015.75085         3.69665         4.65608
     2015.75359         6.09371         4.69215
     2015.75633         7.74578         4.62430
     2015.75906         7.79185         4.60970
     2015.76180         9.02292         4.62688
     2015.76454         4.48198         4.62001
     2015.76728         9.98605         4.71449
     2015.77002        19.19512         4.82099
     2015.77275        13.02519         4.82442
     2015.77549        20.96225         4.75829
     2015.77823        15.04532         4.67154
     2015.78097         6.54339         4.68442
     2015.78371         9.89945         4.63375
     2015.78644        14.08152         4.66553
     2015.78918         3.19359         4.62688
     2015.79192        17.36866         4.68271
     2015.79466         7.69372         4.67755
     2015.79739        12.40479         4.70246
     2015.80013         4.55486         4.77633
     2015.80287        -2.52407         4.75142
     2015.80561         7.99999         4.65264
     2015.80835         6.30906         4.63718
     2015.81108         3.92013         4.72479
     2015.81382         6.90819         4.86995
     2015.81656         2.59926         4.82185
     2015.81930         0.94933         4.71706
     2015.82203         8.82739         4.84074
     2015.82477         4.78346         4.72995
     2015.82751         9.64753         4.89056
     2015.83025         8.36460         4.78491
     2015.83299        12.42067         4.85277
     2015.83572         6.57173         4.74884
     2015.83846         0.96880         4.72909
     2015.84120        -3.74813         4.72651
     2015.84394         1.33893         4.71363
     2015.84668         1.55200         4.71620
     2015.84941         4.72407         4.81669
     2015.85215         5.06614         4.74025
     2015.85763        -0.04873         4.69902
     2015.86031         3.04725         4.84246
     2015.86310        -2.50859         4.70246
     2015.86584         6.54247         4.72393
     2015.86858        -2.93346         4.71792
     2015.87132         1.92261         4.71363
     2015.87405        -4.38233         4.66553
     2015.87679        -2.68426         4.73338
     2015.87953         0.45381         4.86307
     2015.88227         4.56688         4.68271
     2015.88501        -9.40706         4.66209
     2015.88774        -6.80099         4.65780
     2015.89048         3.58908         4.69301
     2015.89322         4.73214         4.69129
     2015.89596         6.02521         4.69044
     2015.89869         4.85828         4.67154
     2015.90143        -2.85265         4.67240
     2015.90417        -4.85059         4.60025
     2015.90691        -2.64152         4.63117
     2015.90965        -0.79345         4.68442
     2015.91238        -2.68838         4.76258
     2015.91512        -1.21632         4.71706
     2015.91786        -1.41125         4.64234
     2015.92060         7.85682         4.72823
     2015.92334         0.76088         4.68872
     2015.92607        -7.44205         4.68700
     2015.92881        -3.41998         4.70246
     2015.93155        -1.27991         4.92491
     2015.93429         6.78415         4.89142
     2015.93702         4.03522         4.88798
     2015.93976         2.13029         4.88798
     2015.94250        -0.25364         4.84074
     2015.94524        -0.99358         4.81240
     2015.94798         8.12549         4.88197
     2015.95071         4.52856         4.67326
     2015.95345        -2.90238         4.63547
     2015.95619        -3.09631         4.70933
     2015.95893        -1.64124         4.83473
     2015.96167         5.67483         4.84418
     2015.96440         2.42689         4.64406
     2015.96714         5.63696         4.73166
     2015.96988         2.15003         4.68271
     2015.97262        12.05510         4.69473
     2015.97535         5.03916         4.69731
     2015.97809         2.99823         4.69817
     2015.98083         0.93930         4.69044
     2015.98357        -7.79164         4.71105
     2015.98631        -8.71657         4.71620
     2015.98904        -1.20350         4.66725
     2015.99178        -4.80843         4.68356
     2015.99452        -3.00637         4.68614
     2015.99726        -2.65630         4.68442
     2016.00000        -5.48623         4.64749
     2016.00273        -1.84316         4.69731
     2016.00547        -3.60110         4.71706
     2016.00821       -15.37603         4.71191
     2016.01095         7.05904         4.70676
     2016.01368        -1.09990         4.73596
     2016.01642        -2.37583         4.77203
     2016.01916        -4.08776         4.86995
     2016.02190         0.46131         4.79350
     2016.02464        -3.52463         4.70246
     2016.02737        -2.26556         4.76945
     2016.03011        -1.04749         4.65866
     2016.03285         3.19858         4.74541
     2016.03559        -5.24736         4.64406
     2016.03833        -0.88629         4.78234
     2016.04106        -4.51222         4.76602
     2016.04380        -0.00616         4.72995
     2016.04654         2.11391         4.63117
     2016.04928        -0.60302         4.62774
     2016.05201        -3.59295         4.63804
     2016.05475        -0.81889         4.65179
     2016.05749         0.88918         4.68872
     2016.06023        -2.40375         4.59166
     2016.06297        -6.16968         4.60884
     2016.06570        -2.53262         4.71620
     2016.06844        -6.50955         4.87596
     2016.07118        -4.96848         4.77547
     2016.07392        -0.97142         4.77890
     2016.07666        -3.93035         4.81927
     2016.07939         7.05872         4.70847
     2016.08213        -1.74721         4.81240
     2016.08487        -3.17515         4.73252
     2016.08761        -6.66608         4.72307
     2016.09034        -6.84701         4.69387
     2016.09308        -3.52495         4.74712
     2016.09582        -6.42488         4.76774
     2016.09856        -9.70481         4.86136
     2016.10130        -9.09574         4.72823
     2016.10403       -14.08568         4.66467
     2016.10677       -13.85861         4.63804
     2016.10951       -11.19454         4.76001
     2016.11225        -8.81147         4.76258
     2016.11498        -7.78941         4.91804
     2016.11772        -5.78434         4.74197
     2016.12046       -13.99227         4.65350
     2016.12320        -9.07521         4.70847
     2016.12594        -0.43514         4.71706
     2016.12867        -1.20707         4.77289
     2016.13141         4.01300         4.69902
     2016.13415         0.20506         4.68099
     2016.13689        -8.18487         4.60798
     2016.13963        -5.60480         4.69988
     2016.14236       -13.93673         4.75657
     2016.14510        -8.58567         4.63289
     2016.14784        -8.56360         4.67068
     2016.15058       -10.67753         4.60712
     2016.15331        -5.59147         4.74970
     2016.15605        -5.80140         4.62172
     2016.15879        -8.69333         4.80381
     2016.16153        -3.57226         4.79780
     2016.16427        -3.89120         4.76774
     2016.16700        -5.28313         4.72222
     2016.16974         0.00194         4.70160
     2016.17248        -2.08399         4.80725
     2016.17522        -5.75693         4.81326
     2016.17796        10.29514         4.86909
     2016.18069        -2.47179         4.74541
     2016.18423        -7.93854         7.38651
     2016.18617        -3.96966         4.66295
     2016.18891        -3.31559         4.68872
     2016.19164        -4.79952         4.60111
     2016.19438         3.75654         4.60455
     2016.19712        -0.45139         4.61915
     2016.19986       -10.84732         4.71878
     2016.20260       -13.14625         4.70761
     2016.20533        -8.56519         4.79780
     2016.20807       -12.70712         4.74369
     2016.21629        -3.33792         4.64234
     2016.21902        -4.18485         4.59424
     2016.22176        -5.37278         4.57534
     2016.22450       -10.00472         4.69645
     2016.22724       -11.73065         4.60025
     2016.22997        -7.69158         4.58737
     2016.23271        -6.37651         4.58393
     2016.23545        -6.64545         4.64062
     2016.23819        -6.88538         4.57277
     2016.24093        -6.09331         4.58651
     2016.24366        -8.39325         4.55559
     2016.24640        -4.16518         4.55817
     2016.24914        -6.19711         4.56332
     2016.25188        -7.21504         4.57792
     2016.25462        -2.16498         4.57792
     2016.25735        -3.78091         4.75228
     2016.26009       -12.02384         4.66982
     2016.26283       -14.24778         4.58565
     2016.26557        -6.47571         4.58307
     2016.26830        -7.12064         4.55731
     2016.27104        -7.57357         4.55817
     2016.27378         0.70249         4.55473
     2016.27652        -4.19244         4.64577
     2016.27926        -6.66137         4.64320
     2016.28199        -7.73530         4.63718
     2016.28473        -5.72224         4.67927
     2016.28747       -11.76917         4.56761
     2016.29020        -7.65512         4.66467
     2016.29295        -6.12804         4.62774
     2016.29568        -8.11897         4.63375
     2016.29842        -4.18590         4.71277
     2016.30116        -6.14283         4.72909
     2016.30390       -10.49577         4.67326
     2016.30663        -2.59770         4.66295
     2016.30937        -8.82663         4.60798
     2016.31211        -7.87056         4.63976
     2016.31485        -4.25550         4.60111
     2016.31759        -3.12543         4.58136
     2016.32032        -7.18936         4.63633
     2016.32306       -12.68830         4.61399
     2016.32580       -12.67123         4.63718
     2016.32854        -5.79316         4.63117
     2016.33128        -6.43109         4.65264
     2016.33401        -6.16603         4.67841
     2016.33675         0.25304         4.69044
     2016.33949        -3.32089         4.66209
     2016.34223        -4.42782         4.68958
     2016.34496        -2.13976         4.76430
     2016.34770        -1.36969         4.68356
     2016.35044         1.98338         4.86050
     2016.35318        -5.34656         4.60025
     2016.35592       -14.70549         4.63031
     2016.35865       -12.34842         4.64062
     2016.36139        -8.47835         4.57878
     2016.36413         3.26471         4.58737
     2016.36687         5.33278         4.60626
     2016.36961         4.27785         4.59166
     2016.37234         5.34292         4.62602
     2016.37508        -0.41502         4.56847
     2016.37782        -7.76195         4.59252
     2016.38056         1.68212         4.62172
     2016.38329         1.74418         4.59424
     2016.38603         0.86825         4.55817
     2016.38877        10.23732         4.59939
     2016.39151        -0.35361         4.55817
     2016.39425        -0.49955         4.54271
     2016.39698         5.91652         4.61056
     2016.39972         7.36259         4.63289
     2016.40246        -1.50534         4.67583
     2016.40520         0.66172         4.66123
     2016.40794        -6.40721         4.60884
     2016.41067        -7.00314         4.57191
     2016.41341        -2.84508         4.68700
     2016.41615        -3.62001         4.63031
     2016.41889        -5.93194         4.70761
     2016.42162        -0.95787         4.65522
     2016.42436        -5.63181         4.60197
     2016.42710         1.12126         4.58565
     2016.42984        -1.04167         4.59510
     2016.43258         3.83340         4.63375
     2016.43531         5.72346         4.68958
     2016.43805         4.49253         4.60025
     2016.44079        -0.55140         4.64835
     2016.44353        -6.43434         4.60970
     2016.44626        -1.85027         4.62430
     2016.44900         2.44880         4.59853
     2016.45174         3.80187         4.60798
     2016.45448         3.27493         4.60369
     2016.45722        -3.53600         4.56160
     2016.45995         3.84107         4.60884
     2016.46269        -1.80787         4.61743
     2016.46543        -3.37480         4.57792
     2016.46817         3.30927         4.60455
     2016.47091         4.50134         4.61142
     2016.47364        -0.24360         4.66639
     2016.47638         8.35747         4.66037
     2016.47912         5.42654         4.72823
     2016.48186         1.45561         4.56246
     2016.48459        -0.16333         4.58995
     2016.48733         4.68074         4.61743
     2016.49007         2.48981         4.60197
     2016.49281         1.53087         4.58651
     2016.49555         3.78194         4.61829
     2016.49828        -4.54299         4.64577
     2016.50102         4.01308         4.58136
     2016.50376         3.54514         4.72909
     2016.50650         1.51021         4.67755
     2016.50924         7.19728         4.56418
     2016.51197         3.38635         4.63375
     2016.51471         2.88241         4.68442
     2016.51745         4.06248         4.75056
     2016.52019        -1.21145         4.66381
     2016.52292        -1.88039         4.60541
     2016.52566         5.67968         4.57191
     2016.52840         3.23475         4.61743
     2016.53114        -0.15418         4.61399
     2016.53382         1.38980         4.65694
     2016.53661         4.61595         4.59510
     2016.53935         4.65602         4.53154
     2016.54209         2.75309         4.52810
     2016.54483         7.30615         4.60712
     2016.54757         4.14122         4.58393
     2016.55030         7.58629         4.72393
     2016.55304         4.75435         4.60111
     2016.55578         8.24042         4.69559
     2016.55852         4.84749         4.57706
     2016.56125         5.48056         4.59596
     2016.56399         8.41462         4.70418
     2016.56673         6.49769         4.69044
     2016.56947         3.67176         4.71964
     2016.57221         3.87783         4.54271
     2016.57494         4.72789         4.66295
     2016.57768        12.80496         4.68185
     2016.58042        10.78703         4.55817
     2016.58316         3.75209         4.54958
     2016.58590         2.03916         4.69731
     2016.58863         7.25623         4.57019
     2016.59137         3.04930         4.74970
     2016.59411         5.29936         4.60111
     2016.59679        11.13835         4.80639
     2016.59958        -0.52450         4.60283
     2016.60232         8.98757         4.87166
     2016.60506         2.45863         4.59768
     2016.60780         5.85870         4.60111
     2016.61054         3.23077         4.72565
     2016.61327         2.37583         4.54442
     2016.61601         4.32490         4.62258
     2016.61875         8.04097         4.56933
     2016.62149         8.43804         4.61829
     2016.62423         4.48310         4.60712
     2016.62696         6.49317         4.55559
     2016.62970         6.38024         4.58909
     2016.63244         6.20630         4.68528
     2016.63518         6.81737         4.51780
     2016.63791        12.44344         4.59768
     2016.64065        17.26151         4.58651
     2016.64339         7.76957         4.58823
     2016.64613         1.54364         4.58651
     2016.64887         2.32771         4.58136
     2016.65160        10.63378         4.60369
     2016.65434        12.07584         4.76774
     2016.65708         4.46091         4.57019
     2016.65982         6.11198         4.56847
     2016.66256         3.58704         4.54271
     2016.66529        13.28911         4.66810
     2016.66803         6.33118         4.66725
     2016.67077        11.30225         4.69473
     2016.67351         8.30931         4.51866
     2016.67624         8.86538         4.56246
     2016.67898        11.12845         4.56675
     2016.68172         9.25252         4.55817
     2016.68446         9.30358         4.72307
     2016.68720        12.05365         4.84074
     2016.68993         4.56172         4.62516
     2016.69267         6.90778         4.66381
     2016.69541        12.97885         4.60369
     2016.69815         7.17692         4.56847
     2016.70089        13.34999         4.55817
     2016.70362        11.54505         4.66037
     2016.70636         6.81612         4.81583
     2016.70910         6.40019         4.83903
     2016.71184        10.94626         4.65007
     2016.71457        17.48932         4.63547
     2016.71731        11.36639         4.76344
     2016.72005         6.71446         4.49031
     2016.72279         8.52252         4.55902
     2016.72553         3.33659         4.66639
     2016.72826         5.37866         4.71363
     2016.73100         5.71373         4.57534
     2016.73374         7.17579         4.55817
     2016.73648         7.66286         4.54958
     2016.73921         2.68793         4.72222
     2016.74195         8.01600         4.61314
     2016.74469         2.61406         4.56418
     2016.74743         5.15213         4.55559
     2016.75017         5.87220         4.64406
     2016.75290         7.48626         4.62602
     2016.75564         9.75833         4.56504
     2016.75838         7.98840         4.59510
     2016.76112         8.66647         4.59939
     2016.76386         8.89553         4.56590
     2016.76659         8.38160         4.64835
     2016.76933         9.94067         4.58307
     2016.77207         2.71774         4.67583
     2016.77481         6.49880         4.64835
     2016.77754         5.76487         4.56332
     2016.78028         0.65194         4.55817
     2016.78302         0.58500         4.59682
     2016.78576         7.61907         4.79608
     2016.78850         7.47114         4.66295
     2016.79123         5.03121         4.62602
     2016.79397         5.51427         4.65436
     2016.79671        -2.99066         4.60369
     2016.79945        -4.73159         4.58221
     2016.80219        -2.53952         4.70676
     2016.80492        -0.25046         4.59596
     2016.80766         1.49061         4.67068
     2016.81040        -0.88732         4.72565
     2016.81314         3.72974         4.62860
     2016.81587        -1.47519         4.69044
     2016.81861        -3.87312         4.60970
     2016.82135         3.58495         4.70504
     2016.82409         3.34701         4.61829
     2016.82683        -6.19092         4.54786
     2016.82956        -0.56585         4.52896
     2016.83230         0.50121         4.63117
     2016.83504        -1.95072         4.57964
     2016.83778         0.62735         4.61915
     2016.84052        -6.29558         4.66295
     2016.84325        -5.17952         4.60025
     2016.84599        -1.67145         4.75829
     2016.84873         3.14462         4.60197
     2016.85147        -4.21431         4.68614
     2016.85420        -5.31725         4.60798
     2016.85694        -0.37018         4.68528
     2016.85968        -2.92411         4.75314
     2016.86242         0.56095         4.69044
     2016.86516        10.50002         4.87596
     2016.86789        -3.02491         4.57019
     2016.87063         4.78716         4.61056
     2016.87337         3.57722         4.67841
     2016.87611        -3.42171         4.77289
     2016.87885        -2.49064         4.55902
     2016.88158       -10.38957         4.56418
     2016.88432        -0.63351         4.58307
     2016.88706         2.41156         4.56418
     2016.88980         2.25663         4.67240
     2016.89253        -1.57431         4.61228
     2016.89527        -6.80924         4.85191
     2016.89801        -3.34017         4.63547
     2016.90075        -2.14110         4.64749
     2016.90349        -3.48504         4.68872
     2016.90622         1.31903         4.67154
     2016.90896         1.98810         4.60111
     2016.91444        -3.39877         4.64921
     2016.91718        -7.95470         4.71363
     2016.91991       -11.85163         4.69645
     2016.92265        -6.97257         4.60283
     2016.92539        -6.77550         4.59682
     2016.92813       -11.88943         4.57534
     2016.93086        -7.07736         4.56847
     2016.93360        -8.14830         4.55731
     2016.93634        -4.70123         4.59252
     2016.93908       -14.85216         4.67068
     2016.94182        -6.00109         4.58651
     2016.94455        -7.19903         4.65694
     2016.94729        -4.50696         4.69902
     2016.95003        -8.65589         4.68185
     2016.95277        -4.98683         4.66467
     2016.95551        -5.89776         4.57448
     2016.95824        -4.54069         4.61142
     2016.96098        -5.95662         4.57019
     2016.96372       -10.08756         4.58307
     2016.96646        -6.49449         4.60541
     2016.96919         6.95358         4.78749
     2016.97193        -8.64535         4.62688
     2016.97467         0.88371         4.67927
     2016.97741        -2.57722         4.57534
     2016.98015        -4.10615         4.59596
     2016.98288        -1.61409         4.58995
     2016.98562        -3.12302         4.60455
     2016.98836        -0.18895         4.69559
     2016.99110        -4.26888         4.66037
     2016.99384        -7.15082         4.68528
     2016.99657        -3.94575         4.58651
     2016.99931        -2.25068         4.56332
     2017.00205        -3.55062         4.63461
     2017.00479        -2.49055         4.60025
     2017.00752        -8.12548         4.57878
     2017.01026        -7.76641         4.56074
     2017.01300        -0.27935         4.56933
     2017.01574         0.14372         4.56332
     2017.01848         0.23079         4.59510
     2017.02121        -3.39914         4.61915
     2017.02395        -2.82908         4.61485
     2017.02669        -2.05001         4.60111
     2017.02943         0.12306         4.56074
     2017.03216        -5.17488         4.56590
     2017.03490        -8.16181         4.58823
     2017.03764        -9.43374         4.59768
     2017.04038        -9.22367         4.59682
     2017.04312        -4.80261         4.55301
     2017.04585         0.43046         5.16025
     2017.04859         6.72553         4.80810
     2017.05133         8.85360         5.42565
     2017.05407         3.41266         4.78062
     2017.05686         7.38981         4.67326
     2017.05954         1.13180         5.52786
     2017.06217         2.89870         5.57854
     2017.06502        -6.37407         5.52013
     2017.06776       -11.02900         4.80553
     2017.07049        -6.50493         5.48663
     2017.07283       -11.57746         5.54933
     2017.07591       -12.40688         5.19117
     2017.07802        -9.14475         6.87719
     2017.08139        -5.68775         5.33633
     2017.08396       -26.16494        10.90112
     2017.08675         0.11322        58.37321
     2017.09320         0.31579         6.94590
     2017.09514         1.50267         4.56246
     2017.09787        -6.16326         4.61485
     2017.10061         4.17281         6.40222
     2017.10335        -6.31713        26.62924
     2017.10489       -21.82184       105.01475
     2017.10882        -1.99799         4.70676
     2017.11156        -8.19092         5.53731
     2017.11419        -6.88503         4.77461
     2017.11704       -12.53179         5.02025
     2017.11978       -19.14772         6.75007
     2017.12246       -17.74574        10.31106
     2017.12970       -12.27698        11.37609
     2017.13518         1.08016        18.01708
     2017.14179        -7.00802         4.83731
     2017.14430        -4.82029         7.13142
     2017.14704       -46.00322        26.72887
     2017.15006       -13.30373        17.24579
     2017.16084        -3.89271         4.61142
     2017.16358        -8.19965         4.73939
     2017.16632        -6.61258         4.60970
     2017.16906        -5.51751         4.64406
     2017.17180         2.85855         4.63117
     2017.17453        -1.01138         4.58909
     2017.17727       -15.20331         4.75056
     2017.18001        -6.20224         4.64663
     2017.18275        -2.58818         4.70676
     2017.18548       -10.57711         4.56847
     2017.18822       -10.65804         4.69817
     2017.19096       -14.16597         4.66725
     2017.19267       -10.00543        10.31965
     2017.19917       -11.22977         4.66725
     2017.20191        -5.01171         4.59338
     2017.20465        -8.27364         4.74884
     2017.20739       -11.06057         4.61829
     2017.21013         2.57550         4.65436
     2017.21286        -7.92044         4.59939
     2017.21560        -5.15637         4.58393
     2017.21834        -0.70430         4.62516
     2017.22108         0.04577         4.63203
     2017.22381        -3.85717         4.70761
     2017.22655       -12.11010         4.75657
     2017.22929        -7.38403         4.60712
     2017.23203        -2.50597         4.59338
     2017.23477        -6.09490         4.58136
     2017.23750       -10.76883         4.58909
     2017.24024        -9.41476         4.63203
     2017.24298        -8.19570         4.60283
     2017.24572       -11.03163         4.57878
     2017.24846       -10.73856         4.64062
     2017.25119        -4.54649         4.60626
     2017.25393        -8.63443         4.61743
     2017.25667        -9.32836         4.62688
     2017.25941       -13.43029         4.63203
     2017.26214        -3.85323         4.63117
     2017.26488        -0.22716         5.30884
     2017.26762        -4.84209         4.64320
     2017.27036        -1.28102         4.61485
     2017.27310        -2.65196         4.67412
     2017.27583       -13.32689         4.62688
     2017.27857       -10.48082         4.60541
     2017.28131       -16.35975         4.62774
     2017.28405       -10.42869         4.66037
     2017.28679       -15.79462         4.60798
     2017.28952        -8.60355         4.58995
     2017.29226       -10.89049         4.59510
     2017.29500        -9.63142         4.71363
     2017.29774       -13.11235         4.61657
     2017.30047       -13.95228         4.62172
     2017.30321       -10.13422         4.56246
     2017.30595       -10.65715         4.65866
     2017.30869       -14.33208         4.58737
     2017.31143        -6.68001         4.60798
     2017.31416        -5.94195         4.60283
     2017.31690        -5.79788         4.67755
     2017.31964       -10.02081         4.69731
     2017.32238       -13.81775         4.62430
     2017.32512       -16.73468         4.61657
     2017.32785       -13.68461         4.60798
     2017.33059       -18.12454         4.59080
     2017.33333       -12.50348         4.56847
     2017.33607       -10.87241         4.60111
     2017.33880        -8.34134         4.71019
     2017.34154        -3.10427         4.85019
     2017.34428        -9.91021         4.59166
     2017.34702        -9.07914         4.56933
     2017.34976        -6.89707         4.59166
     2017.35249        -9.97101         4.57105
     2017.35523        -9.50194         4.62945
     2017.35797       -11.48387         4.61399
     2017.36071        -9.57880         4.58823
     2017.36344        -2.93574         4.58050
     2017.36618        -6.59467         4.65952
     2017.36892        -6.36860         4.60025
     2017.37166       -11.29854         4.64577
     2017.37440        -5.52147         4.55387
     2017.37713        -5.43040         4.59424
     2017.37987       -13.84833         4.66381
     2017.38261        -5.58427         4.64921
     2017.38535        -9.61920         4.56332
     2017.38809        -9.44113         4.61228
     2017.39082         3.12294         4.68528
     2017.39356        -1.68500         4.67927
     2017.39630        -2.64993         4.58995
     2017.39904        -5.38686         4.53841
     2017.40177        -5.14780         4.63031
     2017.40451        -1.82673         4.65952
     2017.40725        -1.97766         4.60970
     2017.40999         1.74341         4.70418
     2017.41273        -4.44253         4.58393
     2017.41546        -7.66846         4.63203
     2017.41820        -2.41639         4.72479
     2017.42094         1.89468         4.60798
     2017.42368        -5.65126         4.56160
     2017.42642        -5.89519         4.62258
     2017.42915        -3.25712         4.57105
     2017.43189        -0.77906         4.71620
     2017.43463        -2.22299         4.61228
     2017.43737         1.23108         4.60970
     2017.44010        -2.00085         4.63203
     2017.44284         5.14421         4.61915
     2017.44558        -2.65972         4.58307
     2017.44832         4.65435         4.61485
     2017.45106         7.24642         4.58823
     2017.45379         4.64248         4.73424
     2017.45653         0.78955         4.77203
     2017.45927        -2.08038         4.61829
     2017.46201         2.58968         4.62860
     2017.46475        -3.40425         4.64062
     2017.46748        -4.82318         4.71620
     2017.47022        -3.43411         4.69215
     2017.47296        -5.87005         4.67669
     2017.47570        -2.97198         4.62087
     2017.47843        -1.86291         4.60455
     2017.48117        -2.04984         4.60197
     2017.48391         2.81222         4.68099
     2017.48665        -0.29871         4.62087
     2017.48939         1.24136         4.59080
     2017.49212         1.83642         4.59853
     2017.49486        -1.22151         4.60798
     2017.49760         2.26556         4.66639
     2017.50034        -2.08537         4.57792
     2017.50308         2.47369         4.62602
     2017.50581        -0.45224         4.60712
     2017.50855        -0.77617         4.65179
     2017.51129        -1.54610         4.63890
     2017.51403        -1.12104         4.61743
     2017.51676        -2.63897         4.64921
     2017.51950         4.60310         4.73424
     2017.52224         1.14916         4.73166
     2017.52498        -4.10877         4.61657
     2017.52772        -1.71570         4.69044
     2017.53045        -0.22663         4.61399
     2017.53319        -0.52857         4.65350
     2017.53593        -1.02350         4.73596
     2017.53867         2.08657         4.61228
     2017.54141         9.43563         4.57964
     2017.54414         3.39870         4.56246
     2017.54688         0.45477         4.76516
     2017.54962         1.54784         4.63375
     2017.55236        -0.89410         4.57448
     2017.55509         0.30297         4.65350
     2017.55783         7.14604         4.61743
     2017.56057         2.73611         4.62516
     2017.56331         0.62817         4.62258
     2017.56605         0.50924         4.63461
     2017.56878        -4.02069         4.61571
     2017.57152         5.82837         4.59853
     2017.57426         1.65644         4.65436
     2017.57700        -0.68649         4.59252
     2017.57974        -5.05242         4.62516
     2017.58247         4.84464         4.63976
     2017.58521        -2.32829         4.58136
     2017.58795         2.68878         4.64234
     2017.59069         4.27785         4.74541
     2017.59342         1.61491         4.63718
     2017.59616        -1.70202         4.64749
     2017.59890         1.58805         4.59510
     2017.60164         3.60311         4.59596
     2017.60438         3.12618         4.63031
     2017.60711         2.47825         4.64062
     2017.60985         1.44432         4.72737
     2017.61253         4.91130         4.77890
     2017.61516         7.38120         5.03571
     2017.61772         6.01901         5.40933
     2017.62023         0.65374         5.92038
     2017.62354         5.01365         4.70504
     2017.62628        12.81572         4.75314
     2017.62902         2.48879         4.91976
     2017.63175         0.43585         4.64148
     2017.63335        15.65823        10.81609
     2017.63723         1.84299         4.65780
     2017.63997         3.77606         4.73768
     2017.64271        12.49712         4.63031
     2017.64544         9.22019         4.78320
     2017.64818         4.12026         4.64491
     2017.65092        -0.81267         4.64577
     2017.65366         4.59839         4.62774
     2017.65639         9.33646         4.66381
     2017.65913         7.73053         4.69387
     2017.66187         8.01759         4.68872
     2017.66461        11.02966         4.82700
     2017.66735        -1.95227         4.76430
     2017.67008         7.49780         4.58737
     2017.67282         8.44886         4.75314
     2017.67556         8.30493         4.58737
     2017.67830         4.98200         4.58651
     2017.68104         5.21307         4.65608
     2017.68377         6.44313         4.75743
     2017.68651         6.15420         4.80209
     2017.68925        12.84927         4.57878
     2017.69199         4.43233         4.64062
     2017.69472         6.95240         4.60111
     2017.69746         9.36347         4.78406
     2017.69963        23.19769         6.36099
     2017.70294         9.46960         4.81927
     2017.70568         2.65967         4.72050
     2017.70841         8.24574         4.58651
     2017.71115         2.28381         4.77976
     2017.71389         6.61787         4.73338
     2017.71663         5.38794         4.68872
     2017.71937         7.93201         4.58995
     2017.72210         9.75207         4.63203
     2017.72484         0.06114         4.62945
     2017.72758         3.31621         4.63461
     2017.73032         7.79528         4.62945
     2017.73305         2.78834         4.60369
     2017.73579         4.09641         4.56160
     2017.73853         3.44548         4.61399
     2017.74127         1.63754         4.61915
     2017.74401        11.54861         4.73939
     2017.74674        -1.33232         4.67583
     2017.74948         3.93675         4.60455
     2017.75222         2.55981         4.63203
     2017.75496         0.45888         4.59080
     2017.75770        -3.18405         4.66810
     2017.76043         0.51602         4.61829
     2017.76317         1.18808         4.63547
     2017.76591         5.38015         4.70933
     2017.76865         4.55622         4.59166
     2017.77138        -1.00672         4.60197
     2017.77412         0.03935         4.77117
     2017.77686        -0.34558         4.63890
     2017.77960         4.65049         4.70590
     2017.78234        -1.45245         4.63547
     2017.78507        -0.88538         4.57277
     2017.78781         0.27369         4.57964
     2017.79055        -5.52124         4.67841
     2017.79329         8.05782         4.72565
     2017.79603         6.95289         4.59682
     2017.79876         7.02896         4.79350
     2017.80150         4.26802         4.71792
     2017.80424         7.59609         4.61228
     2017.80698         7.57016         4.75657
     2017.80971        -6.48477         4.61056
     2017.81245        -4.62471         4.52725
     2017.81519        -2.60464         4.68958
     2017.81793        -5.21157         4.56590
     2017.82067        -5.15350         4.68700
     2017.82340         1.52256         4.56590
     2017.82614        -4.91237         4.54013
     2017.82888        -2.65530         4.57277
     2017.83162        -0.21324         4.59682
     2017.83436         7.14483         4.68185
     2017.83709         0.52590         4.74025
     2017.83983        -5.47903         4.57792
     2017.84257         1.59203         4.55129
     2017.84531        -1.82690         4.58823
     2017.84804        -8.01283         4.57706
     2017.85078        -1.17676         4.59939
     2017.85352         2.63130         4.64663
     2017.85626         3.13537         4.75485
     2017.85900         1.97344         4.71792
     2017.86173         3.09850         4.70847
     2017.86447        -0.91843         4.94295
     2017.86603         7.75889        12.43511
     2017.90925         0.89009         8.33216
     2017.91102        -0.40529         4.69473
     2017.91375         2.14578         8.09339
     2017.91649         0.13385         4.61056
     2017.91923        -2.43508         4.60970
     2017.92197         0.58498         4.60626
     2017.92470        -5.27595         4.58221
     2017.92744        -7.44888         4.58909
     2017.93018        -6.84381         4.58823
     2017.93292        -3.79075         4.56675
     2017.93566        -4.10068         4.66123
     2017.93839        -1.25461         4.67154
     2017.94113        -4.51755         4.63289
     2017.94387         2.86152         4.57620
     2017.94661         2.64559         4.61314
     2017.94935        -0.52234         4.68442
     2017.95208        -2.93028         4.72995
     2017.95482         0.00979         4.68528
     2017.95756        -6.45814         4.58909
     2017.96030         0.93093         4.58565
     2017.96303        -4.42301         4.61915
     2017.96577         3.01806         4.73682
     2017.96851         2.92913         4.60197
     2017.97125        -5.07281         4.61399
     2017.97399        -3.63774         4.53326
     2017.97592        -0.24186         7.43461
     2018.07088        -9.68080         9.42038
     2018.07255        -8.72532         4.68271
     2018.07529       -14.82725         4.68271
     2018.07802        -8.36218         4.80810
     2018.08076       -12.13811         4.79608
     2018.08350        -7.28005         4.72393
     2018.08624       -12.33698         4.64491
     2018.08898        -8.04791         4.82872
     2018.09171        -9.77585         4.72479
     2018.09445       -13.92178         4.75399
     2018.09719         1.00429         4.80123
     2018.09993       -11.50864         4.69215
     2018.10266       -14.24758         4.70332
     2018.10540       -11.44951         4.77031
     2018.10814       -10.16944         4.65780
     2018.11088        -8.05138         4.69559
     2018.11362        -9.64231         4.70590
     2018.11635       -10.84924         4.68528
     2018.11909       -10.70717         4.84933
     2018.12183        -9.05411         4.74970
     2018.12457        -7.95204         4.64491
     2018.12731        -9.28597         4.71363
     2018.13004        -1.08590         4.72136
     2018.13278        -7.61484         4.68700
     2018.13552        -2.39577         4.64491
     2018.13826        -7.73270         4.65608
     2018.14099        -8.02864         4.65866
     2018.14373       -10.65757         4.66725
     2018.14647        -4.50150         4.94295
     2018.14921       -12.20043         4.77031
     2018.15132        -0.11130         6.60921
     2018.15559        -2.88195         7.87093
     2018.15742        -5.91523         4.67583
     2018.16016        -5.00116         4.62602
     2018.16290       -13.02010         4.74884
     2018.16564        -7.26903         4.74798
     2018.16837       -11.43296         4.62516
     2018.17111        -4.96690         4.64491
     2018.17265       -20.99261        14.07217
     2018.19849        -5.67022         4.68872
     2018.20123         3.27084         4.71534
     2018.20397        -0.03609         4.64577
     2018.20670        -6.10902         4.64234
     2018.20944        -7.10095         4.65522
     2018.21218       -10.25189         4.65522
     2018.21492       -17.96782         4.67154
     2018.21765        -7.84375         4.59338
     2018.22039        -4.22768         4.56590
     2018.22313        -4.62962         4.58479
     2018.22587       -11.44955         4.58307
     2018.22861       -12.85448         4.58050
     2018.23134        -9.78342         4.57706
     2018.23408       -13.61135         4.59939
     2018.23682       -15.89528         4.55817
     2018.23956       -13.37021         4.59166
     2018.24230       -10.55615         4.58565
     2018.24503        -9.01908         4.59080
     2018.24777        -9.37501         4.59424
     2018.25051        -4.74594         4.60369
     2018.25325       -11.12688         4.61915
     2018.25598       -10.24781         4.57277
     2018.25872        -8.63574         4.68958
     2018.26146        -5.67768         4.69215
     2018.26420        -2.08861         4.74712
     2018.26694       -12.48854         4.54872
     2018.26967        -9.31447         4.60111
     2018.27241        -6.22741         4.61399
     2018.27515        -0.39434         4.55473
     2018.27789        -4.48327         4.74626
     2018.28062        -3.55521         4.77375
     2018.28336       -15.55314         4.52725
     2018.28610       -13.37107         4.53412
     2018.28884        -3.27200         4.60283
     2018.29158        -8.41494         4.75485
     2018.29431       -13.39487         4.64406
     2018.29705        -9.64980         4.56590
     2018.29979       -13.12673         4.59424
     2018.30253       -14.12267         4.62258
     2018.30527       -10.57660         4.55731
     2018.30800       -13.44353         4.54614
     2018.31074        -8.01847         4.57448
     2018.31348        -9.08140         4.50835
     2018.31622        -7.91333         4.53583
     2018.31895        -0.73726         4.64062
     2018.32169        -8.72120         4.54786
     2018.32443       -11.38813         4.58995
     2018.32717       -10.43106         4.58909
     2018.32991        -7.56999         4.69044
     2018.33264        -9.76993         4.51608
     2018.33538        -7.28086         4.68958
     2018.33812        -7.31679         4.75657
     2018.34086        -2.47273         4.62001
     2018.34360        -5.49966         4.58565
     2018.34633        -9.36059         4.51522
     2018.34907        -4.73152         4.74626
     2018.35181        -1.75746         4.62860
     2018.35455         1.88161         4.74369
     2018.35728        -0.02032         4.53841
     2018.36002        -6.38425         4.54614
     2018.36276         1.31681         4.55902
     2018.36550         1.11388         4.93522
     2018.36824         1.38095         4.59853
     2018.37097        -2.50999         5.16712
     2018.37371         0.47308         4.85019
     2018.37645        -4.56285         4.67154
     2018.37919        -2.37978         4.53498
     2018.38193         2.51228         4.62087
     2018.38466        -0.71665         4.59853
     2018.38740        -2.21158         4.64491
     2018.39014        -0.67751         4.63718
     2018.39288        -0.95745         4.58050
     2018.39681       -11.34060        15.91708
     2018.39835         5.29769         4.62430
     2018.40109         0.82675         4.55817
     2018.40383        -4.35218         4.69731
     2018.40657        -0.38411         4.57363
     2018.40930         4.87596         4.64234
     2018.41204         4.10802         4.60111
     2018.41478         0.97509         4.56332
     2018.42299        -0.39571         4.67240
     2018.42573         1.91036         4.64148
     2018.42847        -0.50557         4.65436
     2018.43121         2.51549         4.65264
     2018.43394         0.70756         4.58221
     2018.43668        -1.55837         4.72393
     2018.43942        -2.46630         4.56761
     2018.44216        -0.94624         4.57277
     2018.44490        -0.79517         4.66896
     2018.44763        -3.33210         4.69215
     2018.45037         0.24396         4.56246
     2018.45311        -1.13497         4.54786
     2018.45585         2.79110         4.55473
     2018.45859        -3.38783         4.62001
     2018.46132         1.62123         4.62172
     2018.46406        -3.79670         4.57878
     2018.46680         2.12037         4.60283
     2018.46954         7.19044         4.59853
     2018.47227         5.27150         4.62258
     2018.47501         7.38757         4.59252
     2018.47775         0.56264         4.62774
     2018.48049         3.17370         5.49179
     2018.48323        -0.30923         4.56504
     2018.48596         0.99484         4.61485
     2018.48870        -1.41809         4.55902
     2018.49144         1.24497         4.50320
     2018.49418         5.36404         4.68700
     2018.49692         1.09311         4.68442
     2018.49965         7.67418         4.56504
     2018.50239         1.85424         4.58221
     2018.50513         2.62231         4.56933
     2018.50787         2.20238         4.58050
     2018.51060         1.92744         4.65179
     2018.51334         1.49251         4.59768
     2018.51608        -1.52442         4.57792
     2018.51882         1.59465         4.55301
     2018.52156         1.09871         4.56675
     2018.52429         1.45378         4.56160
     2018.52703         4.27585         4.54528
     2018.52977         1.11692         4.56418
     2018.53251         6.48898         4.58136
     2018.53525         7.30105         4.54958
     2018.53798         0.80712         4.58221
     2018.54072         4.15018         4.51264
     2018.54346         2.28225         4.63117
     2018.54620         2.11932         4.56332
     2018.54893         5.11039         4.78835
     2018.55167        -2.28255         4.56675
     2018.55441         1.00352         4.56504
     2018.55715         7.66059         4.53841
     2018.55989         5.03466         4.68185
     2018.56371        13.53433        10.83413
     2018.56536         4.04879         4.94467
     2018.56810         5.68586         4.69988
     2018.57084         5.51092         4.55645
     2018.57357         5.64999         4.64749
     2018.57631         6.75106         5.34835
     2018.57905        -0.82987         5.75031
     2018.58179         3.32919         4.64491
     2018.58453         6.16526         4.72737
     2018.58726         4.53233         4.56160
     2018.59000         4.71940         4.54786
     2018.59274         5.16046         4.51608
     2018.59548         8.31653         4.86909
     2018.59802         4.90230         5.00393
     2018.60176         8.81386         8.63363
     2018.60708         5.02077         8.90075
     2018.61002         8.57114         8.19559
     2018.61190         5.58793         4.55559
     2018.61464         4.79300         4.50406
     2018.61738         8.17807         4.59424
     2018.62012         5.53414         4.62688
     2018.62286         7.03820         4.64577
     2018.62559         9.09227         4.68614
     2018.62833         2.48634         4.54442
     2018.63107         8.88140         4.56933
     2018.63381         5.66547         4.81755
     2018.63655        10.55254         4.59596
     2018.63928         8.92961         4.94982
     2018.64202         9.30567         4.84504
     2018.64476         4.39374         4.58479
     2018.64750         3.15381         4.59939
     2018.65023        11.18187         4.62344
     2018.65295         9.89491         4.58737
     2018.65571         5.60301         4.54442
     2018.65845         4.72508         4.54185
     2018.66097         9.12682         4.98504
     2018.66495        12.46374         9.62566
     2018.66666         6.89328         4.58565
     2018.66940         5.71435         4.55988
     2018.67214         1.25341         4.62087
     2018.67488         4.27648         4.58565
     2018.67761         5.62755         4.58050
     2018.68035         4.95161         4.74712
     2018.68309        -2.93332         4.68700
     2018.68583         8.36875         4.65952
     2018.68856         7.28482         4.63804
     2018.69130        11.72888         4.81669
     2018.69404         5.70495         4.73080
     2018.69678         5.31802         4.61485
     2018.69946         1.08801         4.65952
     2018.70334        10.33176        10.56615
     2018.70499        -0.96778         4.56074
     2018.70773        -0.28971         4.61228
     2018.71047        -2.16865         4.69731
     2018.71305         0.25020         4.84418
     2018.71611         6.61674         4.87682
     2018.71868        -1.52344         4.59768
     2018.72142         0.89962         4.58651
     2018.72416        -0.73831         4.73682
     2018.72689         2.89776         4.61485
     2018.72963         4.88483         4.53326
     2018.73237        -5.10211         4.60111
     2018.73511        -5.69204         4.54614
     2018.73785         6.20703         4.58393
     2018.74022        -0.05145         5.49179
     2018.74965        11.87157         7.30406
     2018.75154         4.56836         4.61228
     2018.75399         5.45601         5.27191
     2018.75804         2.26002         8.68173
     2018.75975         2.55057         4.54442
     2018.76249         2.77863         4.53669
     2018.76522        -0.04830         4.74884
     2018.76796         1.64977         4.54356
     2018.77070         3.06983         4.63375
     2018.77344         2.89390         4.54442
     2018.77618         1.09997         4.57277
     2018.77891         1.51704         4.55129
     2018.78165        -1.44190         4.62430
     2018.78439         2.05317         4.55044
     2018.78713         0.66524         4.55988
     2018.78987        -5.58869         4.62344
     2018.79236        -4.32699         5.05547
     2018.79557         3.74378         4.99878
     2018.79808        -5.25849         4.52639
     2018.80082         0.78857         4.54442
     2018.80355         2.41064         4.53326
     2018.80629         1.32771         4.65608
     2018.80903         3.76678         4.55645
     2018.81177         4.54984         4.89915
     2018.81451         7.29791         4.69129
     2018.81704         2.50567         5.38614
     2018.82004         1.17413         4.72995
     2018.82272         1.13611         4.73939
     2018.82546         1.02218         5.05976
     2018.82820        -0.14775         4.54271
     2018.83093        -1.40969         4.57878
     2018.83367         3.71038         4.60626
     2018.83641         2.65545         4.85706
     2018.83915         2.52852         4.58565
     2018.84188        -0.26842         4.71105
     2018.84457         0.94957         4.71449
     2018.84833        -2.35584         8.30296
     2018.85010         1.44478         4.57964
     2018.85284        -4.33615         4.68528
     2018.85569        -4.24791         5.28050
     2018.85831        -3.23101         4.52725
     2018.86105        -1.28195         4.56675
     2018.86379        -2.47188         4.78062
     2018.86653         0.23019         4.55902
     2018.86923         1.34821         4.85449
     2018.87291         4.52268         7.65964
     2018.87474        -0.17361         8.73069
     2018.87748        -1.50154         4.71534
     2018.88021        -0.08948         4.64148
     2018.88295         1.04959         4.63804
     2018.88569         0.92866         4.61228
     2018.88843         8.09073         4.70418
     2018.89117         7.16679         4.68528
     2018.89390         1.32086         4.68700
     2018.89664        -1.73507         4.80123
     2018.89938        -2.18700         4.62602
     2018.90212        -0.54194         4.70418
     2018.90485        11.59413         4.78148
     2018.90759         6.79720         4.69559
     2018.91033         2.85126         4.61228
     2018.91307         2.61833         4.74369
     2018.91566         4.88419         4.91718
     2018.92219         0.90189         7.84087
     2018.92402        -1.30940         4.72479
     2018.92676         3.25267         4.65264
     2018.92950         7.67774         5.27964
     2018.93214        -1.91633         4.89915
     2018.94147         3.74053         9.45474
     2018.94318         2.56607         4.57792
     2018.94592         5.89714         4.73338
     2018.94866         5.12821         4.56761
     2018.95140        13.01627         4.76430
     2018.95414        15.82334         4.68271
     2018.95687         8.91241         4.59080
     2018.95961         1.16348         4.62774
     2018.96235         3.37354         4.63461
     2018.96509         0.21261         4.61056
     2018.96783         3.87968         4.80725
     2018.97056         6.88474         4.68271
     2018.97330        -4.40919         4.59853
     2018.97604        -0.06912         4.70332
     2018.97878        -0.94805         4.54185
     2018.98151       -10.94299         4.59252
     2018.98421        -0.28898         4.82872
     2018.99070        -5.21334         8.62762
     2018.99247         0.56828         4.59338
     2018.99520        -4.33965         4.71964
     2018.99794       -13.32358         5.08811
     2018.99977       -15.25887         8.39658
     2019.00421       -14.83128         9.25118
     2019.00713        -1.48894         8.48590
     2019.00889        -2.34931         4.72393
     2019.01163         0.07075         4.69731
     2019.01437         4.65982         4.69902
     2019.01711         6.40989         4.62860
     2019.01984        -5.35105         4.68099
     2019.02258        -3.35298         4.66295
     2019.02532        -2.63291         5.00479
     2019.02806        -3.17884         4.93608
     2019.03080        -5.86978         4.63031
     2019.03353        -8.75171         4.52639
     2019.03627       -10.46764         4.51952
     2019.03901        -1.08057         4.53755
     2019.04175        -3.34351         4.55559
     2019.04449         3.58356         4.61056
     2019.04715         0.50651         4.79608
     2019.04996        -4.80631         4.76688
     2019.05270       -10.02224         4.77633
     2019.05544        -3.80517         4.64148
     2019.05817       -10.26710         4.74541
     2019.06091        -2.97104         4.76516
     2019.06365        -3.40697         4.64577
     2019.06639         2.70610         4.99449
     2019.06913        -7.77983         4.66553
     2019.07186        -6.83777         4.67326
     2019.07460        -5.94670         4.55645
     2019.07734        -0.21763         4.60541
     2019.08008        -0.00257         4.54786
     2019.08282         0.66550         4.70418
     2019.08555         1.11257         4.58565
     2019.08829        -2.33836         4.54099
     2019.09103         0.51870         4.51007
     2019.09377         1.62077         4.63203
     2019.09650         5.69284         4.68013
     2019.09924        -0.04709         4.53841
     2019.10198        -4.40303         4.57191
     2019.10472        -3.06896         4.56332
     2019.10746       -14.87089         4.59510
     2019.11019        -2.28283         4.56332
     2019.11293        -8.35576         4.62774
     2019.11567        -0.23169         4.72909
     2019.11841         8.95438         4.58737
     2019.12388         3.90451         4.65264
     2019.12662         2.23558         4.55817
     2019.12936         0.21965         4.56761
     2019.13200        -2.32943         4.82700
     2019.13483        -4.52622         4.62087
     2019.13757        -1.92715         4.59166
     2019.14031        -4.66809         4.69301
     2019.14305        -2.74002         4.56418
     2019.14579        -2.94095         4.60541
     2019.14852        -3.30488         4.62258
     2019.15126         0.36918         4.53927
     2019.15400        -6.75275         4.57620
     2019.15674        -3.39468         4.57878
     2019.15948        -6.89361         4.52725
     2019.16221        -7.04655         4.66381
     2019.16495        -3.14148         4.56504
     2019.16769        -9.87441         4.48516
     2019.17043       -10.21935         4.52037
     2019.17316        -4.78228         4.69129
     2019.17590        -2.09221         4.55817
     2019.17864        -3.53014         4.60884
     2019.18138        -9.09008         4.59166
     2019.18406       -12.06309         4.63718
     2019.18657        -3.80537         5.16283
     2019.18931        -5.25930         5.15338
     2019.19182        -6.76557         5.91608
     2019.19507        -6.39074         4.55215
     2019.19780        -9.87467         4.58136
     2019.20054       -11.73261         4.63547
     2019.20328       -12.21854         4.55645
     2019.20602        -7.56847         4.53154
     2019.20876        -9.20840         4.57448
     2019.21149        -8.98234         4.70074
     2019.21520        -5.47583         8.46013
     2019.21697        -4.45220         4.53755
     2019.21971        -6.10714         4.79694
     2019.22245        -2.60007         4.52553
     2019.22518        -6.72300         4.48172
     2019.22792        -2.15893         4.94811
     2019.23066        -5.66087         4.57792
     2019.23340        -2.51880         4.56504
     2019.23613        -3.05173         4.56504
     2019.23887        -9.16666         4.54872
     2019.24161       -13.95160         4.66810
     2019.24435        -8.92653         4.67498
     2019.24709        -2.66346         4.71792
     2019.24982         0.12060         4.59166
     2019.25256        -6.21133         4.63117
     2019.25530       -10.22426         4.58221
     2019.25802        -3.38221         4.62602
     2019.26089         1.13004         4.69473
     2019.26351        -2.94006         4.64577
     2019.26625         1.00901         4.78491
     2019.26899        -2.67892         4.65608
     2019.27173        -9.15486         4.77461
     2019.27446        -9.13179         4.72909
     2019.27720        -2.04772         4.63375
     2019.27994        -2.22366         4.58737
     2019.28268        -3.27559         4.58565
     2019.28542         0.99748         4.54442
     2019.28815         3.79655         4.74369
     2019.29089         0.76061         4.58050
     2019.29363        -0.78932         4.55902
     2019.29637        -5.44425         4.65608
     2019.29911         2.66282         4.58393
     2019.30179        -4.53320         4.62945
     2019.30458        -7.58305         4.70332
     2019.30732        -9.79598         4.58995
     2019.31006         0.63508         4.78749
     2019.31277        -6.46488         4.64749
     2019.31559         9.69730         4.68700
     2019.31833        -3.64363         4.76172
     2019.32101        -6.31565         4.54958
     2019.32375       -12.61558         4.78406
     2019.32648        -1.56351         4.58479
     2019.32922        -5.31544         4.58565
     2019.33196        -1.57138         4.75485
     2019.33470        -0.15931         4.64835
     2019.33744        -4.62624         4.55817
     2019.34017        -7.99218         4.52725
     2019.34291         0.81289         4.55988
     2019.34565        -2.13704         4.69988
     2019.34839        -6.36797         4.61056
     2019.35112        -4.14091         4.55387
     2019.35386        -8.06284         4.55215
     2019.35660         3.59223         4.58651
     2019.35934         6.20430         4.57878
     2019.36208         3.50936         4.55817
     2019.36481        -0.10957         4.62602
     2019.36755         0.77650         4.81412
     2019.37029         0.17656         4.57448
     2019.37303         2.42263         4.62860
     2019.37577         3.51670         4.67412
     2019.37850         2.14777         4.59682
     2019.38124        13.37283         4.94123
     2019.38398         1.91690         4.63289
     2019.38672         0.66797         4.55731
     2019.39219         3.66310         5.67387
     2019.39493         1.26317         4.58050
     2019.39767         3.32424         4.63804
     2019.40041         2.57430         4.56418
     2019.40314         7.96937         4.82528
     2019.40588         5.49844         4.57191
     2019.40862         1.09351         4.53326
     2019.41136        10.17557         4.63976
     2019.41410         4.28864         4.66123
     2019.41683         2.38471         4.62344
     2019.41957         7.50277         4.90516
     2019.42231        -0.52716         4.75743
     2019.42505        11.33291         4.69301
     2019.42778         2.31398         4.70246
     2019.43052         5.85104         4.58823
     2019.43326        -1.70089         4.59424
     2019.43600        -6.22282         4.58995
     2019.43874        -5.80075         4.77289
     2019.44147        -2.10069         4.68442
     2019.44421        -0.80062         4.78320
     2019.44695         6.06345         5.02970
     2019.44969         6.72251         4.71191
     2019.45243         3.59858         4.63547
     2019.45516         0.42165         4.86222
     2019.45790         2.67072         4.70590
     2019.46064         3.02778         4.75571
     2019.46338         1.67585         5.08123
     2019.46611         3.78292         4.86565
     2019.46885         3.19599         4.77633
     2019.47159         4.52305         4.71534
     2019.47433         3.72112         4.68614
     2019.47707         5.58719         4.69387
     2019.47973         3.03714         4.85277
     2019.48254         1.25232         4.69301
     2019.48528        -1.28561         4.89399
     2019.48802        -2.46854         5.04001
     2019.49076        -0.99748         4.56246
     2019.49349        -4.13941         4.55645
     2019.49623        -3.97334         4.75915
     2019.49897        -0.55827         4.68013
     2019.50176         6.66888         5.75719
     2019.50444        -3.10214         6.45805
     2019.50713        -0.90116         4.70332
     2019.50969         0.78966         4.93007
     2019.51237        -1.76036         5.04258
     2019.51540         6.07513         4.55215
     2019.51813        -0.47480         4.57019
     2019.52087        -3.34774         4.63375
     2019.52361         2.79733         4.66037
     2019.52635        -5.74660         5.09154
     2019.52908         3.15847         4.80896
     2019.53182         0.87053         4.68271
     2019.53456        -4.29240         5.17657
     2019.53730         5.69267         4.77718
     2019.54004         1.02073         4.75915
     2019.54277         7.86880         4.73424
     2019.54551         3.96787         4.88283
     2019.54825         4.07894         4.58050
     2019.55099         2.89100         4.66810
     2019.55373         5.14607         4.82185
     2019.55646         4.74114         4.74712
     2019.55920        -5.34280         4.77718
     2019.56194         6.17127         4.58565
     2019.56468         4.10234         4.66982
     2019.56741        -2.44859         4.67412
     2019.57015        -2.30353         4.59682
     2019.57289         0.46254         4.64577
     2019.57563         2.93161         4.59166
     2019.57837         1.53168         4.68528
     2019.58110         7.45974         4.60626
     2019.58384         1.68281         5.12590
     2019.58658        -2.19112         4.59510
     2019.58932         3.31494         4.62516
     2019.59206        11.02101         4.66295
     2019.59479         2.57008         4.75571
     2019.59753         5.45515         4.77804
     2019.60027         5.98721         4.75485
     2019.60301         5.37428         4.82872
     2019.60574         7.44935         4.87682
     2019.60848         9.87442         4.83988
     2019.61122        -1.26152         4.68442
     2019.61396         4.48955         4.68700
     2019.61670         6.08362         4.60712
     2019.61824        10.41191        12.36983
     2019.62211         8.44267         4.82614
     2019.62491         7.72382         4.57792
     2019.62765         8.62589         4.60025
     2019.63039        14.54695         4.58050
     2019.63312         2.59502         4.66037
     2019.63586        14.63609         4.83387
     2019.63860         3.86216         4.66725
     2019.64134        -0.05678         4.69731
     2019.64407         7.94829         4.75485
     2019.64681         0.38836         4.62258
     2019.64955        -0.29158         4.75485
     2019.65229         6.99949         4.80123
     2019.65503         0.43156         4.79007
     2019.65776         3.72163         4.86479
     2019.66050         9.80669         4.74025
     2019.66324         4.85976         4.69044
     2019.66598        -1.05017         4.63633
     2019.66872         2.53190         4.55988
     2019.67145         4.16796         4.56590
     2019.67419         0.13703         4.63547
     2019.67693         5.45910         4.72136
     2019.67967         5.52216         5.09412
     2019.68240         3.92423         4.67412
     2019.68514         2.48330         4.67068
     2019.68788         7.47537         4.68614
     2019.69062         5.16343         4.67326
     2019.69336        -3.74250         4.71019
     2019.69609         0.37957         4.71191
     2019.69883        11.26764         5.00050
     2019.70157         1.29470         4.66467
     2019.70431         4.43977         4.70504
     2019.70682         2.37950         5.22725
     2019.71007        10.37133         5.53559
     2019.71252        -3.29503         4.56332
     2019.71526         1.32204         4.57534
     2019.71800        -0.27389         4.78491
     2019.72073        -1.44783         4.75571
     2019.72347         1.47124         4.58909
     2019.72621        -1.12469         4.67154
     2019.72895         3.03938         4.63804
     2019.73169        -0.37556         4.74283
     2019.73442        22.98751         4.94381
     2019.73716         3.31958         4.62430
     2019.73990         4.67464         4.77976
     2019.74264        -0.05629         4.64234
     2019.74538        -0.91122         4.54872
     2019.74811         1.76585         4.76516
     2019.75085         3.21091         4.82271
     2019.75359         2.06198         4.91890
     2019.75615         4.78278         5.06577
     2019.75941         0.24362         5.34234
     2019.76180         2.31518         4.58050
     2019.76454         0.60625         4.64921
     2019.76728        10.33632         5.30627
     2019.77002        -0.75462         4.80639
     2019.77275        -0.22055         4.72565
     2019.77549         2.01752         4.64835
     2019.77823        -0.26641         4.65522
     2019.78097        10.07565         4.68356
     2019.78371         3.07472         4.66896
     2019.78644        -2.43221         4.73424
     2019.78901         5.88960         5.24013
     2019.79198         9.25501         4.84590
     2019.79466        12.82699         4.79350
     2019.79739         7.47806         4.73166
     2019.80013         0.78812         4.71019
     2019.80287         3.22219         4.71191
     2019.80561         2.98626         4.91203
     2019.80835         1.74633         4.87768
     2019.81108         1.90639         4.80725
     2019.81382         5.68746         5.02111
     2019.81656         3.61253         4.66639
     2019.81930        -2.98041         4.69645
     2019.82203        -0.19734         4.82700
     2019.82477        -1.30827         4.68528
     2019.82762        -3.65803         4.90945
     2019.83025         1.31986         4.77804
     2019.83299         1.49693         4.74884
     2019.83572         3.93100         4.67927
     2019.83846         7.35207         4.68099
     2019.84120         4.15413         4.64062
     2019.84394        -1.10780         4.83387
     2019.84668        -7.14273         4.65694
     2019.84941         5.37933         4.63289
     2019.85215         8.61540         4.84160
     2019.85489         5.85347         4.81583
     2019.85763         3.36854         4.65007
     2019.86003        -1.08890         5.76234
     2019.86344         0.49118         5.44627
     2019.86584         6.84374         4.78406
     2019.86858        10.89081         4.85277
     2019.87132         7.94087         4.83903
     2019.87405         3.74094         4.66123
     2019.87679         9.86601         4.89056
     2019.87953         9.11007         5.15080
     2019.88227        14.65514         4.83903
     2019.88501         8.48821         4.77289
     2019.88774         7.75628         4.75399
     2019.89048         7.52834         4.68786
     2019.89333        12.50658         4.88884
     2019.89596         2.57448         4.73682
     2019.89868         4.37552         4.88283
     2019.90139         4.67256         4.89056
     2019.90428         6.16985         4.88970
     2019.90691         8.46175         4.60626
     2019.90965         5.31781         4.58136
     2019.91238         5.26788         4.61314
     2019.91512         7.00595         4.66982
     2019.91786        10.01802         4.72737
     2019.92060         7.91808         4.67583
     2019.92334         8.60115         5.21866
     2019.92607         7.61922         4.60283
     2019.92868         3.52409         4.89142
     2019.93172         8.38561         4.93179
     2019.93429         5.06942         4.64577
     2019.93694         3.79837         5.23326
     2019.93976         4.40255         4.99534
     2019.94250         4.83562         4.86565
     2019.94517        -2.39441         4.81927
     2019.94838        -0.96765         6.13510
     2019.95089         3.36108         5.24357
     2019.95345         3.90089         4.58393
     2019.95619         1.36596         4.81755
     2019.95893         1.60502         4.61142
     2019.96167         2.91009         4.66209
     2019.96440         4.09616         5.26504
     2019.96714        -2.17777         4.71105
     2019.96988        -4.42871         4.63289
     2019.97262        -0.15064         4.60712
     2019.97535        -0.04057         4.81240
     2019.97809         0.22450         4.66467
     2019.98083        -2.67244         4.63203
     2019.98357        -2.02337         4.65522
     2019.98631         2.87070         4.85191
     2019.98904        -1.58524         4.62516
     2019.99178        -1.98417         4.66295
     2019.99452         2.60890         4.62430
     2019.99726         1.20697         4.70504
     2020.00000        15.77303         4.73166
     2020.00254        11.04981         5.19890
     2020.00580         9.99566         5.64896
     2020.00832        -2.59960         5.08295
     2020.01095         6.45730         4.75657
     2020.01368        -9.12663         5.63866
     2020.01642        -2.38456         4.75399
     2020.01916        -1.82750         4.71277
     2020.02190        -2.08543         5.38013
     2020.02464         2.31464         4.98590
     2020.02737         0.25871         4.62774
     2020.03011        -6.85623         4.77289
     2020.03285       -10.10716         4.64749
     2020.03559        -2.27009         4.55559
     2020.03833         3.28298         4.54442
     2020.04106         2.66304         4.93264
     2020.04380        -4.27389         4.78663
     2020.04654        -2.66682         4.54013
     2020.04928        -6.14276         4.59424
     2020.05201        -3.74869         4.60111
     2020.05475        -1.28162         4.61485
     2020.05735        -2.17977         4.90087
     2020.06027        -0.66642         4.66553
     2020.06306        -1.71828         4.91547
     2020.06576        -5.09027         4.68958
     2020.06844         2.36672         4.63633
     2020.07112        -1.35530         7.02835
     2020.07454         3.15078         6.18835
     2020.07671        -4.51500         4.66896
     2020.07939        -7.39402         4.60283
     2020.08210         2.38600         5.43081
     2020.08487        -3.47588         4.62945
     2020.08761        -2.11381         4.53669
     2020.09034        -2.87775         4.52295
     2020.09308        -5.02368         4.57277
     2020.09570        -8.70479         5.00222
     2020.09861        -3.18746         4.89657
     2020.10130       -10.09548         4.54271
     2020.10403        -7.03141         4.59939
     2020.10677       -10.64534         4.54786
     2020.10951       -11.84028         4.67583
     2020.11225        -4.93621         4.81240
     2020.11491        -1.76325         4.69473
     2020.11858         1.19320         7.90443
     2020.12046        -7.06301         4.68099
     2020.12320        -6.21794         4.55129
     2020.12594        -6.10087         4.55559
     2020.12867        -9.34181         4.65264
     2020.13141        -5.17574         4.61571
     2020.13415        -8.63267         4.54614
     2020.13689        -4.17860         4.74111
     2020.13938        -4.92390         5.42823
     2020.14253        -6.23121         4.86737
     2020.14510         1.28460         4.66037
     2020.14784        -6.62433         4.74455
     2020.15058        -8.46527         4.54786
     2020.15331        -8.30020         4.57363
     2020.15605        -6.54813         4.78663
     2020.15879        -3.67307         4.54442
     2020.16153        -1.48200         4.57706
     2020.16427        -3.81593         4.55215
     2020.16695        -1.70595         4.63461
     2020.16986         0.06637         4.94639
     2020.17248        -1.71973         4.59939
     2020.17517        -0.54474         4.74712
     2020.17796        -1.58859         4.53412
     2020.18069        -1.12153         4.50406
     2020.18343        -1.43746         4.55559
     2020.18617        -8.48239         4.53326
     2020.18891        -3.18333         5.04602
     2020.19164        -4.28626         4.67927
     2020.19438        -6.69019         4.89399
     2020.19712        -2.34712         4.64062
     2020.19986        -8.48906         4.60283
     2020.20260        -6.74199         4.61056
     2020.20533        -1.41692         4.66209
     2020.20807        -2.98885         4.62516
     2020.21081        -8.09579         4.76945
     2020.21355        -7.24172         5.10357
     2020.21629        -1.72265         4.82271
     2020.21902        -7.64759         4.71878
     2020.22176        -2.82352         4.59424
     2020.22450         2.17655         4.77031
     2020.22724         1.48062         4.71878
     2020.22997        -1.24132         4.59424
     2020.23271        -3.97925         4.59510
     2020.23545        -1.91318         4.62001
     2020.23819        -4.10411         4.61743
     2020.24093        -1.71505         4.64320
     2020.24366        -7.10098         4.78062
     2020.24640        -3.22491         4.66896
     2020.24914        -9.85185         4.66123
     2020.25188        -5.69578         4.65436
     2020.25462        -5.66671         4.63289
     2020.25735        -3.41864         4.61485
     2020.26009         5.38842         4.61829
     2020.26283         2.42449         4.81755
     2020.26557        -9.02644         4.61314
     2020.26830        -5.23837         4.60111
     2020.27104        -4.05231         4.62172
     2020.27376        -1.28828         4.70933
     2020.27652        -7.21117         4.62774
     2020.27926        -3.74011         5.09240
     2020.28199         2.67896         4.81498
     2020.28473        -8.38997         4.81498
     2020.28747        -0.49490         4.73166
     2020.29021        -1.93284         4.72479
     2020.29295        -1.74777         4.58050
     2020.29568         2.84530         4.67669
     2020.29842         0.67836         4.59768
     2020.30116         1.54743         4.72222
     2020.30390         1.14150         4.93522
     2020.30663        -6.71843         4.64062
     2020.30937        -4.71837         5.18087
     2020.31211        -1.57630         4.75485
     2020.31485         0.16277         4.77633
     2020.31759        -2.92916         4.58307
     2020.32032        -0.10610         4.87080
     2020.32306        -3.34203         4.57792
     2020.32580        -0.83796         4.65866
     2020.32854         1.65210         4.68872
     2020.33128        -4.03583         4.60884
     2020.33401         2.12424         4.65007
     2020.33675         3.50131         4.68442
     2020.33949        -2.07263         4.76602
     2020.34223        -1.17856         4.73596
     2020.34496        -6.43249         4.92148
     2020.34765        -9.10450         4.70504
     2020.35050         1.26373         4.73080
     2020.35318        -1.26929         4.76344
     2020.35592         0.93178         4.68614
     2020.35865        -0.11716         4.93694
     2020.36139         1.98491         4.61485
     2020.36413         2.69498         4.66295
     2020.36687        -2.58095         4.62430
     2020.36961        -0.92289         4.84418
     2020.37234         7.28018         4.60369
     2020.37508         0.00025         4.61056
     2020.37782        -2.42868         4.69044
     2020.38039        -3.74587         4.90001
     2020.38381         1.89321         6.03032
     2020.38603         3.98652         4.60025
     2020.38877         2.01458         4.79264
     2020.39151         0.61765         4.60197
     2020.39425        -3.40528         4.58909
     2020.39698        -2.66621         4.61915
     2020.39972        -6.42415         4.54528
     2020.40246        -2.11608         4.51780
     2020.40520         2.42799         4.75142
     2020.40793        -5.01696         5.37498
     2020.41096        -0.06545         5.30111
     2020.41341        -1.75581         4.63289
     2020.41615        -5.75274         4.61571
     2020.41889         1.92032         4.80810
     2020.42162        -3.48561         4.61485
     2020.42436        -0.18054         4.78406
     2020.42710        -0.78547         4.92406
     2020.42984         2.30559         4.71449
     2020.43258         0.21166         4.63547
     2020.43531         7.41273         8.69290
     2020.43803        -3.52224         5.26074
     2020.44077        -2.83217         5.32860
     2020.44387         1.16544         7.01203
     2020.44626        -4.33600         4.62688
     2020.44900         2.04506         4.61314
     2020.45174         2.67713         4.58393
     2020.45428        -2.87810         5.00136
     2020.45733         0.85144         4.80639
     2020.45995        -2.53267         4.62945
     2020.46269        -6.53160         4.92749
     2020.46543         1.35947         4.60798
     2020.46817        -1.15947         5.49608
     2020.47091         2.37960         4.56761
     2020.47364         0.21567         4.96872
     2020.47638         7.94274         4.59338
     2020.47906         1.88272         5.02970
     2020.48226        -1.03054         5.70823
     2020.48459         6.66594         4.93866
     2020.48733         2.93701         4.84332
     2020.49007         7.76807         5.96246
     2020.49292         0.00531         4.92835
     2020.49555         2.95821         4.72565
     2020.49828         3.45127         4.55645
     2020.50102        -0.89666         4.57706
     2020.50376         2.54641         4.60884
     2020.50650         2.10448         4.56675
     2020.50924         1.23754         4.54528
     2020.51197         2.03861         5.30025
     2020.51469        -0.90935         4.85363
     2020.51745         3.13875         4.56933
     2020.52019         2.86981         4.91117
     2020.52292         4.47188         4.65007
     2020.52566         2.06395         4.66725
     2020.52840         6.31901         4.71706
     2020.53114        -1.28492         4.64491
     2020.53388         0.61315         4.73853
     2020.53661        -0.66278         4.80381
     2020.53935         2.67628         4.78234
     2020.54209         5.25135         4.75056
     2020.54483         4.82142         4.65264
     2020.54757         5.05449         4.68013
     2020.55030         2.25855         4.68013
     2020.55304         1.83562         5.27105
     2020.55578         6.07069         4.72909
     2020.55852         9.61475         4.66896
     2020.56125         2.98982         4.67841
     2020.56399         2.14289         4.62602
     2020.56673         1.06296         4.92835
     2020.56947         6.37202         4.71964
     2020.57221         4.73609         4.91718
     2020.57494         5.99416         4.77031
     2020.57768         7.57923         4.71019
     2020.58042        -2.34571         4.80725
     2020.58316         1.25036         4.79436
     2020.58590         4.94643         4.72737
     2020.58863         7.18849         4.65436
     2020.59137         1.21056         4.69387
     2020.59390         5.66033         5.16626
     2020.59713        11.12612         5.61461
     2020.59958         1.58776         4.77547
     2020.60232         3.80083         4.65522
     2020.60506         2.60790         4.66553
     2020.60780         7.44397         4.97559
     2020.61042         9.09186         5.09755
     2020.61333        11.46818         4.88197
     2020.61601         5.73417         4.75829
     2020.61875        -2.54577         4.97215
     2020.62149         1.43230         4.72823
     2020.62423        10.66537         4.68185
     2020.62696         8.13744         4.89485
     2020.62970         4.27250         4.87768
     2020.63244         5.83357         5.13792
     2020.63518         5.63864         4.87338
     2020.63791         9.65771         4.87510
     2020.64065         3.86977         4.88197
     2020.64339         2.85384         4.68356
     2020.64613         4.49491         4.71363
     2020.64886         4.06197         4.74798
     2020.65166         8.85813         5.08123
     2020.65434         4.82611         4.88455
     2020.65708         2.27018         4.71105
     2020.65982         5.72324         4.79522
     2020.66256         4.35231         4.94896
     2020.66529         9.21638         4.69301
     2020.66803         5.63444         4.75571
     2020.67077         6.28551         4.74369
     2020.67351         4.46158         4.76774
     2020.67624         8.89365         4.80639
     2020.67898         5.19471         4.71105
     2020.68172        -1.12122         4.74712
     2020.68446         3.23385         4.74455
     2020.68720         5.47492         4.91890
     2020.68993         9.75398         4.69473
     2020.69267         9.13905         4.74712
     2020.69541         4.64712         4.86823
     2020.69815         0.09718         4.82872
     2020.70089         4.03725         4.64663
     2020.70362        12.30632         4.93350
     2020.70636         9.80239         5.45485
     2020.70910         5.52145         5.02970
     2020.71184         3.16752         4.99105
     2020.71457         7.57859         4.86995
     2020.71731         4.97966         4.83988
     2020.72005         1.53872         4.81498
     2020.72279         0.02079         4.72565
     2020.72553         7.59386         4.83817
     2020.72826         8.33492         5.01510
     2020.73100        10.51899         4.93179
     2020.73374        16.25506         5.02970
     2020.73648        12.48013         4.76430
     2020.73921         5.23119         4.73596
     2020.74195         3.06226         4.66467
     2020.74469         4.44933         4.79350
     2020.74743        -0.50560         4.69301
     2020.75017         3.13046         4.69902
     2020.75290         0.64553         4.70761
     2020.75564         0.50660         5.05890
     2020.75838         2.62866         4.68700
     2020.76112         5.78473         4.88970
     2020.76386         7.21780         4.72909
     2020.76659        11.11887         4.64406
     2020.76933         8.68693         4.79350
     2020.77207        11.31100         4.64663
     2020.77481        11.85107         4.84761
     2020.77754         8.37414         4.71363
     2020.78028        12.65220         5.16455
     2020.78302        11.77127         4.79694
     2020.78576         5.11834         4.70761
     2020.78850         3.28340         4.65179
     2020.79123         9.03847         4.76945
     2020.79397         4.95754         4.76516
     2020.79671         6.33661         4.74025
     2020.79945         8.76867         4.88197
     2020.80219         4.68474         4.76945
     2020.80492        10.66181         4.86565
     2020.80766         2.73788         4.90001
     2020.81040         0.34494         4.71620
     2020.81314         6.13701         4.76344
     2020.81587         0.14708         4.64234
     2020.81861         3.45314         4.68013
     2020.82135         4.64721         4.69301
     2020.82409         4.53928         4.66467
     2020.82683         2.46235         4.70847
     2020.82956        -3.56459         5.02541
     2020.83230         4.45348         4.77375
     2020.83504         8.01355         4.81412
     2020.83778         3.62361         4.62258
     2020.84047        15.54362         5.08982
     2020.84325         9.52475         4.90001
     2020.84599         6.28282         5.07350
     2020.84873         2.50688         4.64062
     2020.85147         7.01195         4.66896
     2020.85420         7.95502         4.64234
     2020.85694         9.67209         4.69473
     2020.85968        12.95015         4.82958
     2020.86242         9.93322         4.63031
     2020.86516         2.41529         4.80123
     2020.86787        10.44733         4.86651
     2020.87063        14.10042         4.70160
     2020.87337         8.92949         4.74798
     2020.87611         8.55856         4.81154
     2020.87885        15.50762         4.96528
     2020.88158         9.59069         4.81326
     2020.88432        10.56876         4.89142
     2020.88706         2.52483         4.89314
     2020.88980        -1.65511         4.70761
     2020.89253         1.92896         4.66381
     2020.89527         7.19103         4.93608
     2020.89801         8.41709         4.88626
     2020.90075         8.89916         4.76344
     2020.90349         6.35923         5.02283
     2020.90622         1.17630         4.78062
     2020.90896         6.36436         4.92749
     2020.91170         3.89643         4.86995
     2020.91444         2.84250         5.49866
     2020.91718         3.28157         4.75056
     2020.91989        -4.85040         4.70933
     2020.92271        -5.10422         4.81154
     2020.92539        -1.44623         4.72737
     2020.92813        -0.85817         4.68185
     2020.93086        -6.00410         5.26847
     2020.93360        -8.29303         4.90774
     2020.93634        -1.19696         4.70676
     2020.93908        -4.52390         4.72651
     2020.94182        -2.01483         4.79522
     2020.94455         3.86124         4.65436
     2020.94729        -5.22669         4.65694
     2020.95003        -6.55563         4.99878
     2020.95277       -12.39956         5.25645
     2020.95551        -0.25849         4.72307
     2020.95824        -0.70943         4.68528
     2020.96098        -6.30436         4.71620
     2020.96372        -3.99929         4.69301
     2020.96646        -2.46022         4.77718
     2020.96919        -2.57316         4.79952
     2020.97193        -7.80309         4.72393
     2020.97467         0.60198         4.72823
     2020.97741        -9.60995         4.91547
     2020.98015        -6.16389         4.82786
     2020.98288        -3.81282         4.75314
     2020.98562         5.52425         4.71964
     2020.98836         6.67931         4.63375
     2020.99110         0.48138         4.66037
     2020.99384        -0.37755         4.58823
     2020.99657        -4.61448         4.64663
     2020.99931         1.97958         4.74369
     2021.00205         0.20865         4.64148
     2021.00479         9.54772         4.81583
     2021.00752        -1.60821         4.64491
     2021.01026         0.91985         4.68442
     2021.01300         0.80792         4.60455
     2021.01574        -3.26301         4.60283
     2021.01848         1.45805         4.59768
     2021.02121        -4.02988         4.64577
     2021.02395        -6.35281         4.62602
     2021.02669        -0.83074         4.75228
     2021.02943        -3.80768         4.66982
     2021.03214        -0.81065         4.66209
     2021.03490        -3.27554         4.75485
     2021.03756        -9.30159         4.77203
     2021.04038        -1.36441         4.79007
     2021.04312        -7.33834         4.62258
     2021.04585         2.18173         4.71191
     2021.04859        -6.33521         4.59166
     2021.05133        -7.08614         4.85706
     2021.05407        -0.54407         5.05804
     2021.05681         0.07700         4.77289
     2021.05954        -5.25294         4.63031
     2021.06228        -5.02687         4.65522
     2021.06502        -3.75680         4.61142
     2021.06776         0.82526         4.64234
     2021.07049         1.47133         4.60626
     2021.07323         2.73840         4.65694
     2021.07597        -6.23953         4.61228
     2021.07871        -5.17747         4.61314
     2021.08145        -3.13140         4.56332
     2021.08418        -4.79533         4.61743
     2021.08692        -5.28526         4.72823
     2021.08966        -4.55120         4.61228
     2021.09240        -7.86013         4.84246
     2021.09514        -8.99006         4.70676
     2021.09787        -4.70800         4.86136
     2021.10061        -6.75093         4.63375
     2021.10335        -4.18386         4.60884
     2021.10609       -10.56479         4.74626
     2021.10882        -3.32773         4.62774
     2021.11156       -12.79866         4.96013
     2021.11430       -10.37859         5.08038
     2021.11704        -7.00752         4.94811
     2021.11978        -6.63046         5.00651
     2021.12251        -8.99339         4.66209
     2021.12525        -5.65932         4.75056
     2021.12799        -3.11126         5.03571
     2021.13068       -10.99427         4.72651
     2021.13347       -11.70012         4.84332
     2021.13620        -3.69905         4.74541
     2021.13894       -10.92599         4.75657
     2021.14168        -9.05692         4.62602
     2021.14442        -3.95885         4.77117
     2021.14715        -4.82078         4.66295
     2021.14989       -10.17972         4.91117
     2021.15263        -9.49965         4.88111
     2021.15537        -9.09158         4.81068
     2021.15811        -4.38352         4.93608
     2021.16084        -4.52245         4.70074
     2021.16358        -3.60838         4.73853
     2021.16632        -3.30331         4.74283
     2021.16906        -2.07425         4.75829
     2021.17180        -2.45218         4.64749
     2021.17453        -2.79511         4.91117
     2021.17727        -7.78404         4.72823
     2021.18001        -8.11898         4.75915
     2021.18275       -13.52191         5.65068
     2021.18548        -2.74884         5.25559
     2021.18815        -9.33088         4.95841
     2021.19096        -1.54871         6.07154
     2021.19370        -5.69364         4.84761
     2021.19644       -12.02157         4.61142
     2021.19917        -6.10351         4.69473
     2021.20190        -5.42246         4.91031
     2021.20465         1.14363         5.09412
     2021.20739        -4.21431         4.91203
     2021.21013         2.17976         4.89142
     2021.21286         3.16883         4.89314
     2021.21560        -0.98910         4.66467
     2021.21834        -8.23804         4.76945
     2021.22108       -10.44897         6.05694
     2021.22381        -7.20690         4.92320
     2021.22655        -9.07683         4.99964
     2021.22929         2.18423         5.13019
     2021.23203        -5.55470         4.79436
     2021.23477        -7.63963         4.72995
     2021.23750        -7.91957         4.64663
     2021.24024        -5.95450         4.70847
     2021.24298        -1.66643         4.93007
     2021.24572        -7.77236         5.13019
