# ================= DQRFIT RESULTS ================
# INPUT FILE: series/WAEV.rad
# OUTPUT: LDETRENDED
# FILTER FUNCTION: f(t)
# f(t)=+line(t)+annual(t)
# line(t)=+P 1+P 2*t
# annual(t)=+P 3*sin(2*pi*t+P 4)
# heav(t)=(t<0?0:1)
# TOTAL OBSERVATIONS MTOT= 2170
# INITIAL TIME INTERVAL= 2021.2457 - 2015.0007 =  6.2450
# TOTAL OBSERVATIONS AFTER PREFILTER M= 2167
# TIME-SPAN= 2021.2457 - 2015.0007 =  6.2450
# OBSERVATIONS: USED M=  2167 REJECTED MTOT-M=     3 %USED=   99.8617
# N=  4 PARAMETERS
# MAXSIG= 175.00000
# MAXRES=  45.01303
# SCALE FACTOR FOR LENGTHS: SCL=  10.00000
# SCALE FACTOR FOR SIGMAS: SCLSIG=   1.00000
# CHI^2=   1572.594 DOF=  2163 CHI^2/DOF=   0.72704
# RMS=      4.855 SDEV=      4.856 MEAN=    0.06884
#  P #       PARAMETER +-    SIGMA %error PARAMETER NAME
# P 1 =      4361.88122 +-  113.256   2.60 YZERO                              
# P 2 =        -2.16461 +-    0.056   2.59 SLOPE                              
# P 3 =         8.00397 +-    0.143   1.78 ANNUAL AMPLITUDE                   
# P 4 =        -2.64950 +-    0.022   0.83 ANNUAL PHASE                       
#       T            LDETRENDED       SIG_OBS
     2015.00068        -7.39564         4.87982
     2015.00342       -11.69971         4.79882
     2015.00616       -14.37078         4.83974
     2015.00889       -11.56186         4.75363
     2015.01163        -8.82993         4.82354
     2015.01437       -10.42800         4.72293
     2015.01711       -10.20308         5.11089
     2015.01984        -7.39715         4.80649
     2015.02258        -4.32122         4.93269
     2015.02532        -7.35430         4.85595
     2015.02806        -8.85637         4.89517
     2015.03080        -2.57844         4.79882
     2015.03353       -11.88652         4.86362
     2015.03627        -4.65959         4.80223
     2015.03901         3.74533         4.92927
     2015.04175         3.55326         4.73146
     2015.04449        -1.47381         4.76130
     2015.04722        -2.64089         4.98470
     2015.04995        -5.81299         4.72719
     2015.05270        -5.49203         4.77921
     2015.05544        -6.05511         4.70502
     2015.05817        -1.93418         4.76642
     2015.06017        -3.01986         6.97738
     2015.06365         3.02167         5.09128
     2015.06639         1.65560         4.79711
     2015.06913        -5.96148         4.92757
     2015.07186        -3.22255         4.98981
     2015.07460        -1.59662         4.91648
     2015.07734       -11.88270         4.60952
     2015.08008       -13.50077         4.71099
     2015.08282        -4.26084         4.75874
     2015.08829         3.68101         4.87044
     2015.09103         3.98194         5.06314
     2015.09285        -1.98111         8.54629
     2015.09622        -0.51283         5.77086
     2015.09924        -1.23229         4.87556
     2015.10198         3.80364         5.17825
     2015.10472        -2.75743         5.04950
     2015.10746        -5.65251         5.19019
     2015.11019       -13.14358         4.82951
     2015.11293        -5.04965         4.86618
     2015.11567        -3.39473         5.46475
     2015.11841        -9.34880         5.13392
     2015.12115         0.72513         5.20810
     2015.12388        -6.74695         4.90455
     2015.12662        -8.23602         4.98811
     2015.12936        -4.95010         4.99152
     2015.13210        -6.47117         4.78262
     2015.13483        -5.69124         4.79370
     2015.13757        -8.49932         5.22259
     2015.14031        -7.24239         5.06911
     2015.14305        -5.15446         4.72975
     2015.14579        -7.06154         4.68797
     2015.14852        -8.50061         4.84401
     2015.15126        -4.88068         4.70161
     2015.15400        -9.58976         4.75021
     2015.15674        -1.47683         4.91052
     2015.15948        -0.29790         4.77835
     2015.16221        -2.41698         5.19104
     2015.16495        -2.27605         4.62999
     2015.16769        -7.03313         4.71696
     2015.17044        -3.92518         4.92331
     2015.17316        -3.60127         4.80223
     2015.17590        -7.99735         4.83207
     2015.17864        -5.26142         4.83974
     2015.18138        -7.21349         4.87385
     2015.18412         0.00243         4.66580
     2015.18685        -3.08064         4.60270
     2015.18959         5.00729         4.77921
     2015.19233        -2.28779         4.84657
     2015.19507        -0.33986         4.77750
     2015.19780        -0.68494         4.76556
     2015.20054        -4.16301         4.88664
     2015.20328        -6.68608         4.57627
     2015.20602        -7.54416         4.87044
     2015.20876        -4.37623         4.68115
     2015.21149        -5.34430         4.64363
     2015.21423        -9.30138         5.01198
     2015.21697         1.10655         4.88067
     2015.21971        -4.77352         4.85253
     2015.22245        -7.11860         4.94377
     2015.22520         1.06137         4.71696
     2015.22792        -4.83775         4.64278
     2015.23066        -1.76782         4.62402
     2015.23340        -6.48989         4.95912
     2015.23614        -0.35796         5.08446
     2015.23887        -0.23404         4.90114
     2015.24161         0.10889         4.86277
     2015.24435        -6.93419         4.86191
     2015.24709        -6.41126         4.80820
     2015.24982        -3.65233         4.68797
     2015.25256        -4.75741         4.78773
     2015.25530        -7.25648         4.67347
     2015.25804        -8.46456         4.68456
     2015.26078        -2.84663         4.72208
     2015.26351        -2.97370         4.69650
     2015.26625        -1.44478         4.66921
     2015.26899        -1.33485         4.64875
     2015.27173         6.85208         4.79796
     2015.27446         1.58700         4.78091
     2015.27720         0.32993         4.67006
     2015.27994        -3.02114         4.76556
     2015.28268        -6.90722         4.69991
     2015.28542        -8.77929         4.72719
     2015.28815        -8.82536         4.95230
     2015.29089        -5.08144         4.66068
     2015.29363        -2.11651         4.70758
     2015.29637        -4.15159         4.71867
     2015.29911         1.18934         4.66751
     2015.30184         1.87727         4.72293
     2015.30458        -4.26481         4.63255
     2015.30732        -5.02488         4.52937
     2015.31006        -2.56095         4.68712
     2015.31279        -5.53903         4.60867
     2015.31553        -7.54510         4.61635
     2015.31827       -10.76417         4.57542
     2015.32101        -6.45225         4.59929
     2015.32375        -6.52432         4.56177
     2015.32648        -6.01640         4.69650
     2015.32922        -1.44047         4.64278
     2015.33196        -0.71554         4.58480
     2015.33470        -4.33262         4.65045
     2015.33744        -2.68469         4.70758
     2015.34017        -4.83176         4.51744
     2015.34291        -5.96084         4.53619
     2015.34565        -3.37491         4.57201
     2015.34839        -5.66498         4.52170
     2015.35112        -5.76706         4.79711
     2015.35386        -2.37213         4.84145
     2015.35660        -2.46821         4.54387
     2015.35934        -0.61128         4.80308
     2015.36208        -2.27635         4.66239
     2015.36481        -1.79043         4.76130
     2015.36754        -1.92752         4.70843
     2015.37029        -2.13357         4.68371
     2015.37303        -4.73865         4.66836
     2015.37577        -5.72372         4.68626
     2015.37850        -7.22779         4.76471
     2015.38124        -3.69287         4.62999
     2015.38398        -3.71594         4.64193
     2015.38672        -3.19702         4.73487
     2015.38945        -3.61809         4.56945
     2015.39219         2.10784         4.70929
     2015.39493        -3.15224         4.67603
     2015.39767        -4.58831         4.58224
     2015.40041        -3.16338         4.57798
     2015.40314        -7.50646         4.66410
     2015.40588        -2.12553         4.67689
     2015.40862         0.17440         4.60867
     2015.41136         0.67332         4.55069
     2015.41410        -1.19175         4.77835
     2015.41684        -1.10880         4.63596
     2015.41957        -3.13090         4.82610
     2015.42231         0.89903         4.61549
     2015.42505        -5.67405         4.62743
     2015.42778        -1.37812         4.58053
     2015.43051         0.54679         4.52596
     2015.43326        -2.92627         4.57286
     2015.43600         5.79666         4.66665
     2015.43874         3.87659         4.65898
     2015.44147        -4.44649         4.91052
     2015.44421        -0.82556         4.71440
     2015.44695        -0.79063         4.55751
     2015.44969        -2.13571         4.62487
     2015.45243        -0.52578         4.65045
     2015.45516        -0.61886         4.59929
     2015.45790         1.66807         4.70161
     2015.46064         6.92400         4.72122
     2015.46338         5.40392         4.84742
     2015.46611         5.56785         4.62061
     2015.46885         3.81378         4.59588
     2015.47159         5.37770         4.61976
     2015.47433         5.68163         4.77665
     2015.47706         7.93754         4.83548
     2015.47980        -0.04452         4.61038
     2015.48254         2.31841         4.60952
     2015.48528         0.06433         4.62317
     2015.48802         3.31226         4.53023
     2015.49076         8.93719         4.65642
     2015.49349         2.53511         4.65131
     2015.49623         9.02604         4.64960
     2015.49897         4.16597         4.63937
     2015.50171         6.37289         4.61038
     2015.50444        11.63882         4.65557
     2015.50718         3.86175         4.56177
     2015.50992         4.24367         4.76300
     2015.51266         3.78360         4.66239
     2015.51540         3.60152         4.51147
     2015.51813         6.20545         4.60270
     2015.52087        13.16038         4.53619
     2015.52361         9.10330         4.67092
     2015.52635         4.76523         4.53619
     2015.52908         7.54116         4.65983
     2015.53182        10.45008         4.68626
     2015.53456         5.17501         4.66921
     2015.53730        15.02194         4.75533
     2015.54004         7.91486         4.68030
     2015.54277         5.71879         4.71867
     2015.54551        18.86572         4.76471
     2015.54825        17.28364         4.78176
     2015.55099         9.62757         4.65898
     2015.55355         9.62112         4.91904
     2015.55646         9.11042         4.69479
     2015.55920        22.41435         4.71014
     2015.56195        15.26330         4.64363
     2015.56468         8.14020         4.60441
     2015.56741         5.01313         4.62231
     2015.57015         7.96505         4.73231
     2015.57289        10.67998         4.70332
     2015.57563        13.95191         4.59077
     2015.57837        10.79183         4.64107
     2015.58110        11.57876         4.66751
     2015.58384        11.05868         4.65813
     2015.58658        11.05461         4.74766
     2015.58932         8.76754         4.69053
     2015.59206        13.27346         4.65898
     2015.59479        11.96839         4.60867
     2015.59753        16.00632         4.79541
     2015.60027        16.17724         4.81416
     2015.60301        16.61917         5.01966
     2015.60574        12.54010         4.66239
     2015.60848        14.38102         4.68371
     2015.61122        15.79695         4.68541
     2015.61396        14.64287         4.61038
     2015.61670        10.41580         4.55154
     2015.61943        12.31673         4.63937
     2015.62217        12.06365         4.61720
     2015.62491        18.97558         4.65472
     2015.62765        10.74851         4.54302
     2015.63039        12.99943         4.53023
     2015.63312        12.75536         4.70247
     2015.63586        22.09129         4.59929
     2015.63860        10.15021         4.48503
     2015.64134        16.43414         4.53449
     2015.64407        13.70706         4.49953
     2015.64681        11.09799         4.60015
     2015.64955        14.49592         4.65898
     2015.65229         9.73684         4.57286
     2015.65503        20.04377         4.68712
     2015.65776        15.59970         4.85765
     2015.66050         9.37462         4.85253
     2015.66324        19.85955         4.54984
     2015.66598        17.67948         4.75533
     2015.66872        22.89240         4.92586
     2015.67145        13.82033         4.57115
     2015.67419         8.37126         4.64107
     2015.67693        11.74618         4.54557
     2015.67967        11.38111         4.54472
     2015.68240         6.76703         4.55154
     2015.68514        12.18596         4.64193
     2015.68788         9.53289         4.56519
     2015.69062        11.47781         4.60015
     2015.69335         7.98372         4.74936
     2015.69609         9.54267         4.52085
     2015.69883        11.03159         4.66665
     2015.70157        13.76552         4.54813
     2015.70431        11.35445         4.57371
     2015.70705        13.49737         4.50891
     2015.70978        12.43230         4.56774
     2015.71252         6.84522         4.54472
     2015.71526        12.47615         4.56604
     2015.71800        21.57408         4.71270
     2015.72073        21.78899         4.71696
     2015.72347         8.84793         4.57627
     2015.72621         3.84386         4.52852
     2015.72895         8.97278         4.67177
     2015.73169         4.97471         4.55751
     2015.73442        11.69064         4.59332
     2015.73716        10.86256         4.51488
     2015.73990         7.00149         4.69479
     2015.74264         9.07941         4.68030
     2015.74538        12.59234         4.76642
     2015.74811         7.32027         4.63937
     2015.75085         6.39019         4.48162
     2015.75359         0.50112         4.63596
     2015.75633         6.96805         4.52937
     2015.75906        10.24097         4.50806
     2015.76180         8.40990         4.67262
     2015.76454         5.81483         4.54898
     2015.76728         6.87075         4.62487
     2015.77002        10.62668         4.86703
     2015.77275        11.67761         4.72890
     2015.77549        16.84853         4.65131
     2015.77823        14.40846         4.73487
     2015.78097        10.42638         4.60526
     2015.78371         9.18931         4.59247
     2015.78644        10.65824         4.59759
     2015.78918         6.58916         4.58480
     2015.79192        12.17109         4.57030
     2015.79466         9.98202         4.60952
     2015.79739        11.14794         4.63937
     2015.80013         7.89987         4.81331
     2015.80287         3.23980         4.71440
     2015.80561         6.78672         4.62317
     2015.80835         6.39365         4.60697
     2015.81108         3.19357         4.58394
     2015.81382        11.09750         4.62573
     2015.81656         3.90143         4.64107
     2015.81930         7.12636         4.56689
     2015.82203         7.47928         4.65642
     2015.82477         7.12121         4.76983
     2015.82751        14.03813         4.73146
     2015.83025        11.11406         4.63852
     2015.83299        14.07299         4.81672
     2015.83572         6.36291         4.65386
     2015.83846        -3.28316         4.78262
     2015.84120        -5.53024         4.85936
     2015.84394        -0.79831         4.77579
     2015.84668        -3.86038         4.81672
     2015.84941         6.75554         4.74766
     2015.85215         1.12047         4.85253
     2015.85763        -2.05968         4.72293
     2015.86031         2.44113         4.98385
     2015.86310         3.84018         4.65557
     2015.86584         6.22210         4.74680
     2015.86858        -6.44797         4.86703
     2015.87132        -2.16205         4.86106
     2015.87405        -1.90612         4.72293
     2015.87679        -0.18919         4.84571
     2015.87953        -2.37227         4.76471
     2015.88227        -2.32234         4.66751
     2015.88501       -10.95841         4.60526
     2015.88774        -7.56849         4.61123
     2015.89048         0.88944         4.58565
     2015.89322        -0.85263         4.67177
     2015.89596         1.18829         4.64960
     2015.89869        -1.01078         4.60782
     2015.90143        -8.30185         4.57883
     2015.90417        -8.01493         4.55922
     2015.90691        -3.47600         4.57371
     2015.90965        -6.14108         4.57371
     2015.91238        -9.20415         4.61635
     2015.91512        -0.72822         4.60270
     2015.91786        -2.83630         4.55410
     2015.92060         0.81363         4.65472
     2015.92334        -1.67444         4.60015
     2015.92607        -9.63852         4.60441
     2015.92881       -10.04759         4.61805
     2015.93155        -6.78466         4.78176
     2015.93429        -3.71774         4.75448
     2015.93702         4.66519         4.77068
     2015.93976         5.53611         4.78347
     2015.94250         0.24904         4.68797
     2015.94524        -7.02803         4.66665
     2015.94798         0.75689         4.70332
     2015.95071         1.96482         4.55069
     2015.95345        -5.53225         4.58480
     2015.95619        -3.32433         4.65642
     2015.95893        -5.98540         4.87556
     2015.96167         4.05453         4.81246
     2015.96440        -3.44855         4.57456
     2015.96714         3.83038         4.63766
     2015.96988         2.91930         4.56519
     2015.97262         7.61123         4.57883
     2015.97535         1.66116         4.64789
     2015.97809         1.72808         4.59418
     2015.98083        -5.66699         4.58736
     2015.98357       -11.95706         4.60611
     2015.98631       -10.58314         4.63169
     2015.98904        -8.82621         4.64107
     2015.99178        -9.80628         4.58565
     2015.99452        -6.78636         4.61976
     2015.99726        -8.28343         4.61379
     2016.00000        -9.48951         4.59162
     2016.00273       -12.17058         4.60441
     2016.00547        -7.18765         4.63169
     2016.00821        -7.22573         4.58650
     2016.01095        -1.15180         4.66324
     2016.01368        -8.08487         4.66921
     2016.01642        -9.85495         4.69820
     2016.01916        -5.44402         4.81416
     2016.02190        -3.10009         4.66239
     2016.02464        -4.83217         4.63766
     2016.02737        -5.76924         4.62828
     2016.03011        -7.75631         4.66580
     2016.03285        -5.02139         4.61549
     2016.03559        -5.36246         4.57371
     2016.03833        -2.55354         4.67603
     2016.04106        -3.22161         4.64448
     2016.04380        -8.19268         4.64278
     2016.04654        -4.66076         4.56689
     2016.04928        -4.16683         4.56604
     2016.05201        -6.28890         4.57542
     2016.05475        -2.27898         4.57115
     2016.05749        -6.99505         4.60356
     2016.06023        -7.52912         4.60611
     2016.06297        -8.54820         4.52085
     2016.06570        -7.46927         4.63766
     2016.06844        -6.68635         4.73998
     2016.07118        -7.12342         4.70673
     2016.07392        -9.99349         4.74510
     2016.07666        -4.27557         4.74936
     2016.07939        -0.41264         4.61549
     2016.08213        -4.94371         4.76215
     2016.08487        -4.03479         4.62573
     2016.08761       -14.89986         4.64363
     2016.09034        -9.83893         4.65216
     2016.09308        -9.34001         4.67859
     2016.09582       -14.75508         4.63937
     2016.09856       -13.64716         4.73060
     2016.10130       -16.57123         4.59588
     2016.10403       -15.72830         4.59418
     2016.10677       -12.84938         4.65045
     2016.10951        -9.49245         4.79626
     2016.11225       -11.89752         4.61294
     2016.11498        -8.01960         4.68030
     2016.11772       -13.85667         4.59673
     2016.12046        -9.78174         4.60526
     2016.12320       -10.59882         4.61038
     2016.12594       -12.63889         4.60100
     2016.12867        -0.87397         4.64278
     2016.13141         0.83096         4.58650
     2016.13415        -2.21111         4.57542
     2016.13689        -5.86319         4.56604
     2016.13963       -10.72926         4.62317
     2016.14236       -14.72133         4.55325
     2016.14510       -19.26241         4.53790
     2016.14784       -11.87148         4.59759
     2016.15058       -12.16055         4.55581
     2016.15331        -6.76963         4.67177
     2016.15605        -7.90270         4.55666
     2016.15879       -11.02777         4.72890
     2016.16153       -11.78785         4.67433
     2016.16427        -4.46392         4.78006
     2016.16700        -8.02600         4.71355
     2016.16974        -9.18407         4.84230
     2016.17248        -7.24114         4.79370
     2016.17522        -6.92622         4.84912
     2016.17796        -6.19829         4.83378
     2016.18069        -4.81836         5.11430
     2016.18429        -8.26059         7.59131
     2016.18617         0.25249         4.82099
     2016.18891        -1.56158         5.06314
     2016.19164        -6.47066         4.59844
     2016.19438        -0.70173         4.89346
     2016.19712        -3.71181         4.79711
     2016.19986        -3.81688         4.83122
     2016.20260        -9.94895         4.89517
     2016.20533       -11.61503         5.06144
     2016.20807       -12.29010         4.81331
     2016.21629        -7.71332         4.64704
     2016.21902        -1.00439         4.82184
     2016.22176        -4.75147         4.66580
     2016.22450        -8.38854         4.73146
     2016.22724        -7.39462         4.85509
     2016.22997        -8.46469         4.94036
     2016.23271        -7.80976         4.65727
     2016.23545        -7.03084         4.93610
     2016.23819        -5.28891         4.66495
     2016.24093        -2.14998         4.62231
     2016.24366        -4.95506         4.63255
     2016.24640        -4.60213         4.56263
     2016.24914        -7.21320         4.67689
     2016.25188        -3.95128         4.68541
     2016.25462        -8.52035         4.54813
     2016.25735        -4.40343         4.65045
     2016.26009       -11.31350         4.64789
     2016.26283       -14.25657         4.69053
     2016.26557        -6.86365         4.61890
     2016.26830        -7.28172         4.56263
     2016.27104        -4.96279         4.64704
     2016.27378         0.04213         4.56604
     2016.27652        -9.80294         4.57542
     2016.27926        -5.66801         4.64960
     2016.28199       -10.30609         4.77579
     2016.28473        -8.72516         4.76130
     2016.28747        -8.40323         4.61123
     2016.29021       -11.85031         4.57456
     2016.29295        -8.49338         4.64875
     2016.29570        -7.09342         4.69053
     2016.29842        -5.50953         4.75533
     2016.30116        -1.49560         4.77494
     2016.30287       -10.37590        10.57564
     2016.30663        -2.78975         4.68200
     2016.30937        -5.07382         4.74254
     2016.31211        -6.53290         5.07508
     2016.31485        -4.36097         4.75363
     2016.31759        -3.95304         4.58821
     2016.32032        -7.71612         4.73657
     2016.32306       -13.02119         4.60782
     2016.32580        -7.90527         4.79114
     2016.32854        -8.21434         4.71781
     2016.33128        -5.33041         4.65301
     2016.33401        -1.69749         4.73401
     2016.33675        -4.69756         4.75874
     2016.33949        -6.83763         4.76727
     2016.34223        -6.17071         4.65727
     2016.34496        -4.90078         4.77579
     2016.34770         0.56915         4.72378
     2016.35044         5.79007         4.94633
     2016.35318        -7.82900         4.72037
     2016.35592        -8.68208         4.64448
     2016.35865       -13.08415         4.53534
     2016.36139        -1.83622         4.67689
     2016.36413         4.58170         4.69735
     2016.36687         5.62763         4.68371
     2016.36961         8.47156         4.71696
     2016.37234         7.16848         4.76897
     2016.37508        -0.11759         4.76215
     2016.37782        -3.78966         4.69138
     2016.37953        -2.14396        10.42813
     2016.38329         0.53219         4.68200
     2016.38603        -1.95389         4.64704
     2016.38877        12.63304         4.70161
     2016.39151        -1.17503         4.60356
     2016.39425         0.09989         4.59673
     2016.39698         9.34982         4.66580
     2016.39972         9.32675         4.68797
     2016.40183        -6.80568         6.51353
     2016.40520        -3.89840         4.90796
     2016.40794        -5.54747         4.74084
     2016.41067        -3.57655         4.60015
     2016.41341        -2.33362         4.71526
     2016.41615        -0.80269         4.73487
     2016.41889        -5.51277         4.77068
     2016.42162        -3.70584         4.74339
     2016.42425         0.47484         4.84912
     2016.63352         0.31284        11.15119
     2016.63518         9.91842         4.56433
     2016.63791        19.93534         4.60697
     2016.64065        16.91227         4.61549
     2016.64339         9.01519         4.60270
     2016.64613        10.27612         4.49868
     2016.64887         6.41805         4.62146
     2016.65160         8.08297         4.58139
     2016.65434         8.96690         4.67262
     2016.65708         6.10683         4.63084
     2016.65982         0.41975         4.78176
     2016.66256         9.31968         4.70161
     2016.66529         8.02261         4.85253
     2016.66803         7.03053         4.68882
     2016.67077         9.72146         4.75533
     2016.67351        10.77439         4.73146
     2016.67624         7.56430         4.55154
     2016.67898        12.26724         4.71696
     2016.68172        13.84116         4.75192
     2016.68446         6.40409         4.90455
     2016.68720         7.14202         4.85083
     2016.68993         8.08794         4.65642
     2016.69267        10.35387         4.70588
     2016.69541        10.41880         4.68712
     2016.69815         9.47572         4.64619
     2016.70089        10.84965         4.62061
     2016.70362        13.83258         4.81331
     2016.70636         8.52850         4.92672
     2016.70911         8.44846         4.89602
     2016.71184        17.04435         4.85083
     2016.71457        13.37528         4.72208
     2016.71731        15.19121         4.74425
     2016.72005         9.68313         4.63681
     2016.72279         9.26206         4.56177
     2016.72553        10.47299         4.84998
     2016.72826         5.34491         4.76897
     2016.73100         8.54684         4.73487
     2016.73374         6.10277         4.57286
     2016.73648         3.78569         4.52852
     2016.73921        13.11162         4.71440
     2016.74195         4.67954         4.54557
     2016.74469         6.02147         4.59759
     2016.74743         5.35840         4.51658
     2016.75017        12.21832         4.61635
     2016.75290         9.57825         4.60100
     2016.75564        11.93118         4.59844
     2016.75838        13.91910         4.67006
     2016.76112        10.44203         4.73828
     2016.76386         9.80496         4.62061
     2016.76659         6.30788         4.86788
     2016.76933        10.39481         4.68882
     2016.77207         7.17273         4.79967
     2016.77481         8.39566         4.61549
     2016.77754         3.78959         4.50124
     2016.78028         6.66351         4.54557
     2016.78302         7.37144         4.76130
     2016.78576         2.60637         4.96423
     2016.78850        13.13929         4.73487
     2016.79123         8.79822         4.70758
     2016.79397        12.38115         4.67262
     2016.79671         4.41207         4.72805
     2016.79945        -4.74100         4.59162
     2016.80219        -1.30607         4.99919
     2016.80492         3.06585         4.64022
     2016.80766         3.71978         4.59077
     2016.81040        -0.99730         4.67603
     2016.81314         2.00063         4.74084
     2016.81587        -2.39344         4.61464
     2016.81861        -1.87952         4.81075
     2016.82135         1.63141         4.66154
     2016.82409         6.37334         4.56433
     2016.82683        -0.89374         4.76471
     2016.82956        -0.14581         4.56433
     2016.83230         6.15012         4.89602
     2016.83504        -0.41396         4.91137
     2016.83778         2.45297         4.67518
     2016.84052        -0.10811         4.77665
     2016.84325        -0.77518         4.66580
     2016.84599        -0.14525         4.84316
     2016.84873         5.62067         4.74936
     2016.85147         1.93860         4.68115
     2016.85420         2.68753         4.61805
     2016.85694         4.22145         4.68200
     2016.85968        -2.22262         4.75192
     2016.86242        -1.12069         4.70332
     2016.86516         6.02323         4.74169
     2016.86789         5.01616         4.66921
     2016.87063         2.38308         4.76556
     2016.87337         3.76001         5.01710
     2016.87611        -1.84206         4.84657
     2016.87886        -5.53610         4.68968
     2016.88158        -9.33021         4.80734
     2016.88432         3.94872         4.74936
     2016.88706        -0.78336         4.90711
     2016.88980         2.07357         4.73316
     2016.89253        -1.12452         4.64278
     2016.89527         0.53942         4.95059
     2016.89801        -6.25165         5.22089
     2016.90075        -4.86173         4.93269
     2016.90349        -0.74980         5.06485
     2016.90624         4.46117         5.12198
     2016.90896         1.00705         4.93013
     2016.91444        -2.39109         4.99834
     2016.91718        -1.42817         5.08787
     2016.91991        -7.56824         5.10834
     2016.92265         0.35369         4.85509
     2016.92539        -0.95639         4.84827
     2016.92813        -8.23246         4.83804
     2016.93086        -6.71353         4.72208
     2016.93360        -4.79861         4.64107
     2016.93634        -6.01568         4.73742
     2016.93908        -9.95976         4.69138
     2016.94185        -9.07076         4.85509
     2016.94455        -4.68090         4.72975
     2016.94729         2.43402         5.01881
     2016.95003        -3.69805         4.75363
     2016.95277        -3.79712         4.76215
     2016.95551        -6.64420         4.64448
     2016.95824        -2.41827         4.75789
     2016.96098        -2.65534         4.87300
     2016.96372        -7.47542         4.61805
     2016.96646        -6.93349         4.67944
     2016.96919        -5.36657         4.92586
     2016.97193        -6.03064         4.62828
     2016.97467        -1.32771         4.76727
     2016.97741        -4.42579         5.06826
     2016.98015        -1.40786         5.18763
     2016.98288        -8.24893         4.66154
     2016.98562        -3.80301         4.67092
     2016.98835        -0.27810         4.98981
     2016.99110        -1.75415         4.68371
     2016.99384        -1.98823         4.68456
     2016.99657        -1.99330         4.80308
     2016.99931        -4.35138         4.65216
     2017.00205        -0.65245         4.83633
     2017.00479        -6.30852         4.56092
     2017.00752       -10.33360         4.57371
     2017.01026        -6.29567         4.71526
     2017.01300        -6.28474         4.64619
     2017.01574        -4.52982         4.56519
     2017.01848        -4.03289         4.55922
     2017.02121         0.30904         4.69905
     2017.02395         1.07096         4.87641
     2017.02669        -2.41711         4.95656
     2017.02943        -1.36319         4.77750
     2017.03216        -7.23626         4.56945
     2017.03490        -8.49633         4.55666
     2017.03764        -8.28441         4.58906
     2017.04038        -8.71348         4.62402
     2017.04312        -4.27755         5.19531
     2017.04591        11.63150         6.64399
     2017.04861         9.78334         5.93883
     2017.05133         9.38423         6.34726
     2017.05408         6.14117         5.49545
     2017.05686         4.39420         4.61294
     2017.05954        -1.20699         6.06929
     2017.06188         4.10507         5.66598
     2017.06502        -6.45814         5.92945
     2017.06776        -7.09322         5.65916
     2017.07049        -4.56229         6.40695
     2017.07289        -9.41710         5.71373
     2017.07591        -8.64656         8.79271
     2017.07802        -6.01199         7.07032
     2017.08139        -6.01571         5.27461
     2017.08453       -11.78792        22.93592
     2017.08749        -1.57650        18.50119
     2017.09320       -10.15815         6.76507
     2017.09514        -3.13995         4.55154
     2017.09787        -5.63403         4.67774
     2017.10061        -4.95710         7.19396
     2017.10324       -23.72642        25.09403
     2017.10934        -7.45921         6.20401
     2017.11129        -1.23198         7.36705
     2017.11419       -13.59771         5.02563
     2017.11704       -18.66054         5.34964
     2017.11978       -17.79861         6.93987
     2017.12257        -9.22856         7.69704
     2017.12548        -6.56327        12.36113
     2017.13039         2.08235         8.21290
     2017.13347        37.23802        44.35495
     2017.13546        -1.51066        59.83940
     2017.14191        -6.41771         4.96253
     2017.14442        -6.70228         4.95997
     2017.14715        -6.29635        10.06916
     2017.14909        -7.38315        12.89661
     2017.16084        -5.44972         4.67859
     2017.16358        -5.47979         4.89602
     2017.16632        -5.84987         4.60611
     2017.16906       -10.84194         4.93439
     2017.17180        -4.58801         4.68712
     2017.17453        -3.79409         4.51147
     2017.17727       -10.51816         4.61464
     2017.18001        -7.46323         4.62828
     2017.18275        -7.39231         4.73913
     2017.18548       -12.15638         4.88920
     2017.18822       -13.70245         4.87641
     2017.19096       -18.14653         4.86106
     2017.19370        -7.49660         4.82610
     2017.19644        -1.22268         5.08531
     2017.19917        -6.60775         4.90966
     2017.20191        -6.02182         4.84827
     2017.20465       -17.45390         4.98640
     2017.20739        -8.16997         4.87129
     2017.21013        -3.80104         5.25840
     2017.21286        -6.98712         4.80223
     2017.21560        -7.62719         4.62146
     2017.21834        -5.59126         4.78432
     2017.22108        -4.94434         4.57712
     2017.22381        -8.06841         4.61208
     2017.22655        -3.40149         5.05973
     2017.22929        -7.57756         4.66665
     2017.23203       -10.52763         4.61549
     2017.23477        -8.30471         4.63596
     2017.23750        -9.68078         4.58906
     2017.24024        -6.51385         4.81161
     2017.24298       -12.90493         4.84316
     2017.24572       -13.32000         4.67262
     2017.24846       -12.58707         4.59332
     2017.25119       -10.78415         4.64789
     2017.25393       -12.92122         4.53108
     2017.25667        -9.08930         4.52596
     2017.25941       -15.97337         4.56604
     2017.26214        -6.70644         4.66154
     2017.26488        -1.39552         4.73231
     2017.26762        -8.07859         4.69394
     2017.27036        -8.39166         4.63937
     2017.27310        -9.43374         4.66068
     2017.27583       -12.22881         4.63169
     2017.27857        -9.64988         4.84571
     2017.28131       -15.00496         4.82099
     2017.28405       -13.88203         4.59332
     2017.28679       -12.41511         4.64534
     2017.28952       -14.00418         4.52937
     2017.29226        -7.91725         4.57030
     2017.29500       -12.29633         4.56263
     2017.29774       -15.12540         4.57115
     2017.30047       -14.82647         4.65557
     2017.30321        -9.88255         4.58906
     2017.30595       -12.39462         4.60185
     2017.30869        -9.99969         4.68541
     2017.31143        -7.86277         4.79029
     2017.31416       -11.63984         4.61123
     2017.31690        -6.25591         4.61549
     2017.31964       -11.61199         4.67347
     2017.32238       -15.66606         4.61720
     2017.32512       -16.64414         4.49441
     2017.32785        -6.17321         4.54813
     2017.33059       -18.29428         4.60526
     2017.33333       -17.41836         4.58053
     2017.33607       -17.66443         4.81246
     2017.33880       -11.00550         4.95997
     2017.34154         8.22042         5.36840
     2017.34428       -12.86565         4.48418
     2017.34702       -12.23372         4.51061
     2017.34976        -8.79280         4.54643
     2017.35249       -12.02287         4.49441
     2017.35523       -12.78195         4.55495
     2017.35797       -12.36402         4.51658
     2017.36071       -10.22709         4.58309
     2017.36344        -8.85717         4.78688
     2017.36618       -11.06124         4.59844
     2017.36892        -5.80831         4.87300
     2017.37166        -3.50939         5.13221
     2017.37440        -8.68346         4.62487
     2017.37713        -6.50453         4.63766
     2017.37987       -17.00161         4.62317
     2017.38261        -6.47668         4.62573
     2017.38535        -9.49676         4.49782
     2017.38809        -6.97883         4.53790
     2017.39082        -2.24890         4.61720
     2017.39356        -5.09798         4.67859
     2017.39630        -3.61405         4.51658
     2017.39904        -1.89312         4.53961
     2017.40177        -0.85420         4.56433
     2017.40451        -7.60727         4.72634
     2017.40725        -2.29634         4.58480
     2017.40999        -6.99542         4.63340
     2017.41273        -6.12049         4.61123
     2017.41546        -2.41257         4.55581
     2017.41820         2.71536         4.59077
     2017.42094        -4.88971         4.56263
     2017.42368        -7.46679         4.53108
     2017.42642        -8.08186         4.64022
     2017.42915         3.81507         4.58309
     2017.43189         5.11999         4.59332
     2017.43463        -2.74408         4.66239
     2017.43737        -0.82915         4.62999
     2017.44010        -1.98323         4.61464
     2017.44284         0.72670         4.66836
     2017.44558         2.99663         4.53619
     2017.44832        -2.57345         4.52852
     2017.45106         0.93448         4.53534
     2017.45379        -1.86760         4.66921
     2017.45653        -7.60467         4.75959
     2017.45927         7.08226         4.58906
     2017.46201         0.92018         4.60356
     2017.46475        -8.03689         4.63766
     2017.46748        -4.06696         4.62658
     2017.47022        -3.69104         4.62828
     2017.47296         6.74389         4.60270
     2017.47570         0.17282         4.51573
     2017.47843        -5.79626         4.51488
     2017.48117        -1.40533         4.52596
     2017.48391        -2.73941         4.63937
     2017.48667         3.77956         4.56519
     2017.48939         3.75745         4.51488
     2017.49212         1.68837         4.56263
     2017.49486        -2.40070         4.71867
     2017.49760        -0.57877         4.58053
     2017.50034         1.62115         4.56348
     2017.50308         5.77208         4.51403
     2017.50581         4.71001         4.53534
     2017.50855         1.75393         4.54387
     2017.51129        -2.18914         4.64875
     2017.51403         1.41978         4.68797
     2017.51676         0.95471         4.63340
     2017.51950        -0.30736         4.69820
     2017.52224         8.45156         4.60185
     2017.52498         0.79449         4.52852
     2017.52772         3.25742         4.69564
     2017.53045         3.77934         4.55410
     2017.53319         3.70327         4.53108
     2017.53593        12.80420         4.65898
     2017.53867         0.47012         4.54302
     2017.54141         7.09505         4.61123
     2017.54414         7.86297         4.55922
     2017.54688         5.90590         4.59418
     2017.54962         5.33783         4.60441
     2017.55236         3.25575         4.65386
     2017.55509         3.21268         4.55495
     2017.55783         6.23761         4.59418
     2017.56057         1.49953         4.58139
     2017.56331         4.50446         4.50294
     2017.56605         4.93039         4.64534
     2017.56878         4.59331         4.56177
     2017.57152         5.17324         4.58480
     2017.57426         2.64717         4.54046
     2017.57700         2.44709         4.52085
     2017.57974         6.44602         4.60526
     2017.58247         6.73594         4.51573
     2017.58521         3.83987         4.51914
     2017.58795        -0.68920         4.56860
     2017.59069         5.24372         4.58650
     2017.59342         3.29965         4.55069
     2017.59616         4.29258         4.57115
     2017.59890         5.16850         4.58224
     2017.60164         4.32743         4.56092
     2017.60438         1.43736         4.65642
     2017.60711        -1.38872         4.67859
     2017.60985         2.08321         4.65727
     2017.61253         6.64101         4.78262
     2017.61516         6.20769         4.91052
     2017.61772         1.89425         5.35731
     2017.62023         1.56168         6.00534
     2017.62354         4.10384         4.72378
     2017.62628        14.00177         4.74851
     2017.62902         8.25569         4.82269
     2017.63175         1.79462         4.70929
     2017.63335         6.06208        10.65153
     2017.63723         4.61847         4.59503
     2017.63997         8.66740         4.64193
     2017.64271        18.48132         4.67944
     2017.64544         8.20625         4.56604
     2017.64818         4.16418         4.61379
     2017.65092         5.29910         4.56774
     2017.65366         6.95903         4.53449
     2017.65639        13.10496         4.62914
     2017.65913         9.05088         4.57115
     2017.66187         4.31181         4.56774
     2017.66461        13.02374         4.71014
     2017.66735        12.83766         4.70673
     2017.67008        16.44459         4.47992
     2017.67282        11.57451         4.67006
     2017.67556        10.29444         4.58821
     2017.67830         8.52437         4.64278
     2017.68104         8.50929         4.73742
     2017.68377        14.83022         4.74254
     2017.68651        16.66615         4.76386
     2017.68925        14.61507         4.53449
     2017.69199         9.31400         4.56092
     2017.69472        10.76693         4.54131
     2017.69746        13.99885         4.69223
     2017.69963        16.04854         6.28758
     2017.70294        15.37371         4.78688
     2017.70568         5.78963         4.62402
     2017.70841         8.12856         4.54728
     2017.71115        14.13048         4.71184
     2017.71389        13.07241         4.66836
     2017.71663        11.88634         4.50209
     2017.71937         7.25126         4.51317
     2017.72210         4.45119         4.52085
     2017.72484         3.80812         4.51999
     2017.72758        14.12904         4.59247
     2017.73032        11.74597         4.71014
     2017.73305         9.44490         4.57371
     2017.73579         0.19282         4.58991
     2017.73853         6.19475         4.60356
     2017.74127         8.94767         4.52426
     2017.74401        22.73160         4.79285
     2017.74674        11.95753         4.60185
     2017.74948         4.13145         4.51999
     2017.75222         2.53538         4.61635
     2017.75496         1.79631         4.59588
     2017.75770         5.13823         4.77665
     2017.76043         9.51816         4.70843
     2017.76317         7.98009         4.64448
     2017.76591        13.12201         4.58480
     2017.76865         6.29894         4.51147
     2017.77138         1.67986         4.50209
     2017.77412        13.98379         4.56007
     2017.77686         3.48872         4.67774
     2017.77960         4.12164         4.98470
     2017.78234         5.10357         4.66495
     2017.78507         1.63050         4.57798
     2017.78781         3.64642         4.56519
     2017.79055         2.38835         4.60356
     2017.79329         4.74628         4.71099
     2017.79603         6.88020         4.56348
     2017.79876         6.86413         4.66410
     2017.80150         9.45505         4.63596
     2017.80424         9.67998         4.78091
     2017.80698         2.51891         4.95656
     2017.80971         3.20983         4.55325
     2017.81245        -3.43824         4.50465
     2017.81519         7.52669         4.72378
     2017.81793         0.42961         4.59844
     2017.82067        -3.49646         4.80308
     2017.82340         0.05247         4.59418
     2017.82614        -2.41761         4.55836
     2017.82888        -4.23568         4.45860
     2017.83162         3.83725         4.56263
     2017.83436         4.89117         4.55325
     2017.83709         0.13310         4.63169
     2017.83983        -3.19998         4.51744
     2017.84257        -3.18605         4.48077
     2017.84531        -2.72512         4.80223
     2017.84804        -8.34420         4.61720
     2017.85078         1.89173         4.85595
     2017.85352         2.78066         4.65472
     2017.85626        -1.78642         4.62402
     2017.85900        -2.81749         4.55751
     2017.86173        -0.22856         4.59844
     2017.86447        -7.28964         4.80990
     2017.86603         0.46874        12.17269
     2017.90925        -4.93972         8.36041
     2017.91102         1.81211         4.59332
     2017.91375        -3.74196         4.57798
     2017.91649        -4.04004         4.53193
     2017.91923        -2.15511         4.53619
     2017.92197        -0.05118         4.80052
     2017.92470        -7.43826         4.83292
     2017.92744        -8.83133         4.67859
     2017.93018       -11.81441         4.63510
     2017.93292        -9.51248         4.77579
     2017.93566       -13.58955         4.51658
     2017.93839        -6.97663         4.56519
     2017.94113        -5.94270         4.59929
     2017.94387        -3.74577         4.53705
     2017.94661        -1.82185         4.69735
     2017.94935        -7.25892         4.57115
     2017.95208        -6.22899         4.70417
     2017.95482        -2.85307         4.80820
     2017.95757         4.68788         5.23453
     2017.96030         1.01779         5.01198
     2017.96303        -2.11029         4.60697
     2017.96577        -0.62536         4.61379
     2017.96851        -2.53744         4.48845
     2017.97125        -7.02451         4.50379
     2017.97399        -2.62058         4.50038
     2017.97672        -7.73066         4.45434
     2017.97946        -9.61373         4.47566
     2017.98220        -5.51480         4.75789
     2017.98494        -8.65888         4.67433
     2017.98767       -10.65795         4.68712
     2017.99041        -6.95002         4.65727
     2017.99315        -9.59610         4.51488
     2017.99589       -10.54117         4.53108
     2017.99863        -7.18825         4.48162
     2018.00136       -10.56832         4.50550
     2018.00410       -12.91739         4.48077
     2018.00684       -11.90347         4.53534
     2018.00958       -11.67154         4.60185
     2018.01232       -13.90661         4.73913
     2018.01505        -4.93369         4.86532
     2018.01779        -2.66276         4.99919
     2018.02053        -2.80383         4.92757
     2018.02327        -2.18091         4.55922
     2018.02600         0.54002         4.50891
     2018.02874        -3.92406         4.51999
     2018.03148        -8.24913         4.48333
     2018.03422       -11.15920         4.49527
     2018.03696       -14.64828         4.70417
     2018.03969       -11.69735         4.77494
     2018.04243        -6.20242         4.94121
     2018.04517       -11.24050         4.85253
     2018.04791       -11.66157         4.89943
     2018.05065        -2.25164         4.51317
     2018.05338        -5.65472         4.53790
     2018.05612       -11.77779         4.57371
     2018.05886        -6.81087         4.50294
     2018.06160        -9.21394         4.47224
     2018.06433        -4.65101         4.70843
     2018.06707         0.76191         4.88579
     2018.06981        -9.65516         4.74339
     2018.07255       -10.69223         4.92331
     2018.07529       -18.70931         4.91819
     2018.07802       -13.48038         4.64278
     2018.08076       -13.06345         4.64875
     2018.08350       -10.37253         4.56177
     2018.08624       -10.35260         4.58309
     2018.08898       -10.04867         4.69991
     2018.09171       -11.76275         4.71952
     2018.09445        -9.14282         5.26267
     2018.09719        -4.12990         5.11089
     2018.09993        -8.40997         5.06314
     2018.10266        -9.83104         5.01795
     2018.10540       -11.30612         4.69479
     2018.10814        -3.74119         4.59418
     2018.11088        -8.74426         4.58480
     2018.11362       -11.05334         4.57542
     2018.11635        -8.85741         4.57286
     2018.11909       -10.87448         4.76215
     2018.12183       -12.46956         5.49971
     2018.12457       -10.20563         4.80990
     2018.12731       -12.04671         4.86447
     2018.13004        -1.83478         5.27802
     2018.13278        -0.16885         4.61379
     2018.13552        -3.80893         4.51573
     2018.13826        -6.84000         4.56774
     2018.14099       -10.19307         4.59247
     2018.14373       -11.67415         4.62487
     2018.14647        -7.77122         4.82951
     2018.14921        -6.42829         4.69394
     2018.15195        -3.37337         4.76983
     2018.15468        -5.09144         4.83122
     2018.15742        -5.45052         4.91137
     2018.16016        -7.11559         4.72549
     2018.16290        -8.96566         4.65727
     2018.16564        -9.36074         4.64278
     2018.16837        -8.38481         4.57968
     2018.17111        -9.09288         4.57371
     2018.17265        -8.01655        13.85842
     2018.19849        -4.37962         4.60185
     2018.20123         0.96031         4.71270
     2018.20397        -1.24877         4.59844
     2018.20670         0.26816         4.60015
     2018.20944        -3.38091         4.72463
     2018.21217        -9.75400         4.62317
     2018.21492       -20.81106         4.65898
     2018.21765        -6.92613         4.53534
     2018.22039        -2.55121         4.53534
     2018.22313        -0.51928         4.50720
     2018.22587       -13.78936         4.51573
     2018.22861       -12.21343         4.49100
     2018.23134       -11.05750         4.64448
     2018.23408       -15.96858         4.79711
     2018.23682        -6.95065         4.60782
     2018.23956       -11.88372         4.56860
     2018.24230        -4.82680         4.73572
     2018.24503       -13.47787         4.48674
     2018.24777        -2.86494         4.64363
     2018.25051        -2.98802         4.54813
     2018.25325        -9.24509         4.47395
     2018.25598        -8.07617         4.46542
     2018.25872       -13.02424         4.73572
     2018.26146        -8.32631         4.89090
     2018.26420        -4.31739         4.74169
     2018.26694       -11.63146         4.75789
     2018.26967       -16.30853         4.47480
     2018.27241        -8.55461         4.53705
     2018.27515        -0.71468         4.53193
     2018.27789        -4.06275         4.62828
     2018.28062        -5.16783         4.65386
     2018.28336       -10.00190         4.55410
     2018.28610        -9.33298         4.56945
     2018.28884        -5.32705         4.82781
     2018.29158         1.50288         5.12709
     2018.29432        -6.34518         5.00943
     2018.29705       -13.35027         4.53875
     2018.29979       -12.13334         4.47907
     2018.30253        -3.98542         4.51914
     2018.30527       -11.77249         4.45775
     2018.30800       -10.06356         4.45604
     2018.31074        -7.10864         4.44752
     2018.31348        -8.71571         4.64875
     2018.31622        -5.23278         4.60356
     2018.31895        -2.07286         4.69053
     2018.32169        -0.14593         4.75021
     2018.32443        -6.00701         4.49186
     2018.32717        -9.79608         4.47992
     2018.32991        -8.48215         4.64704
     2018.33264        -3.96123         4.46542
     2018.33538       -10.57230         4.62743
     2018.33812        -2.79337         4.67859
     2018.34086        -1.11145         4.56263
     2018.34360        -6.53052         4.51658
     2018.34633        -3.34959         4.52682
     2018.34907        -6.29667         4.52511
     2018.35181        -0.85774         4.73146
     2018.35455        -1.02482         4.46031
     2018.35728        -0.47989         4.48503
     2018.36002        -0.85196         4.47310
     2018.36276         1.93396         4.52511
     2018.36549        -1.03013         5.36840
     2018.36824         0.40582         4.94548
     2018.37097        -0.39526         4.59673
     2018.37371        -0.22533         4.60952
     2018.37645        -5.53240         4.61976
     2018.37919        -1.74048         4.46628
     2018.38193        -8.04355         4.51829
     2018.38466         1.55237         4.45604
     2018.38740        -2.20770         4.47907
     2018.39014         1.34923         4.59162
     2018.39288        -0.95185         4.60697
     2018.39561        -0.70692         4.72805
     2018.39835        -1.19899         4.58139
     2018.40109         1.27293         4.51914
     2018.40383        -1.18514         4.56092
     2018.40657        -0.19021         4.50891
     2018.40930         7.26871         4.57030
     2018.41204        -1.45636         4.48845
     2018.41478        -0.96644         4.49186
     2018.42299        -4.08866         4.61720
     2018.42573         2.32027         4.65727
     2018.42847         2.93820         4.49441
     2018.43121         1.55912         4.51317
     2018.43394        -1.06795         4.62317
     2018.43668        -7.97002         4.48589
     2018.43942        -2.81810         4.49356
     2018.44216        -6.83417         4.57201
     2018.44490        -2.06824         4.59418
     2018.44763         6.83568         4.83633
     2018.45038        -6.28837         4.58480
     2018.45311        -0.66847         4.55666
     2018.45585         1.15146         4.48333
     2018.45859        -6.28961         4.56689
     2018.46132        -3.41869         4.49186
     2018.46406         0.64124         4.70929
     2018.46680        -4.67483         4.48503
     2018.46954         5.05709         4.55751
     2018.47227         0.79902         4.65045
     2018.47501         5.80395         4.64789
     2018.47775         5.89087         4.61635
     2018.48049         4.92080         4.55410
     2018.48323        -2.86428         4.46031
     2018.48596         1.02765         4.49953
     2018.48870         0.13458         4.50294
     2018.49144         0.04050         4.47395
     2018.49418         4.64443         4.69309
     2018.49692         0.50336         4.72805
     2018.49965        -6.33472         4.61890
     2018.50239         0.43821         4.51488
     2018.50513        -1.71286         4.50379
     2018.50787         3.49006         4.48674
     2018.51060         3.36299         4.61379
     2018.51334         0.34991         4.49100
     2018.51608         1.32384         4.52340
     2018.51882         0.05777         4.58991
     2018.52156        -1.31431         4.71526
     2018.52429         0.60962         4.51403
     2018.52703         0.22855         4.56519
     2018.52977         4.16247         4.59929
     2018.53251         1.25940         4.49441
     2018.53525         5.33833         4.48759
     2018.53798         6.30225         4.50209
     2018.54072         6.08518         4.47139
     2018.54346        10.89610         4.52511
     2018.54620         5.69503         4.54643
     2018.54893         3.25596         4.67347
     2018.55167         4.66888         4.61038
     2018.55441         8.01981         4.57542
     2018.55715         2.25874         4.50124
     2018.55989         5.51166         4.55836
     2018.56262         0.24259         4.46031
     2018.56536        -0.42648         4.57542
     2018.56810         7.32144         4.51658
     2018.57084         5.61137         4.62573
     2018.57357         4.58930         4.59162
     2018.57631         1.85322         4.73401
     2018.57905         2.65715         4.84486
     2018.58179         6.18207         4.57968
     2018.58453        16.01100         4.61976
     2018.58726         6.86993         4.43729
     2018.59000         5.18985         4.43643
     2018.59274         5.47378         4.47736
     2018.59548         7.91271         4.52340
     2018.59822        11.62063         4.62743
     2018.60095        10.25356         4.55154
     2018.60369         5.25149         4.43046
     2018.60643         7.49441         4.47992
     2018.60917         9.80334         4.61294
     2018.61190         8.18226         4.51232
     2018.61464         8.22519         4.46287
     2018.61738         6.92712         4.51914
     2018.62012        10.00504         4.49953
     2018.62286         5.33497         4.67689
     2018.62556         8.89882         4.84316
     2018.62833         6.00882         4.57883
     2018.63107         5.67575         4.44496
     2018.63381         3.36768         4.58650
     2018.63655         7.31060         4.50550
     2018.63928        11.16253         4.68285
     2018.64202        16.38745         4.75789
     2018.64476        10.72638         4.54472
     2018.64750         6.41731         4.57371
     2018.65023        14.23523         4.84742
     2018.65297        12.77416         4.81758
     2018.65571        10.71509         4.70502
     2018.65846        12.43304         4.62487
     2018.66119        13.16094         4.49100
     2018.66392         8.41487         4.66239
     2018.66666         6.42279         4.55325
     2018.66940         5.27372         4.52682
     2018.67214         6.02364         4.66410
     2018.67488         9.21157         4.60356
     2018.67761         9.44350         4.68541
     2018.68035         8.63842         4.83719
     2018.68309         1.82335         4.85850
     2018.68583         3.14928         4.72208
     2018.68856        14.88120         4.53278
     2018.69130        12.20113         4.59929
     2018.69404         5.34506         4.69735
     2018.69673         8.83087         4.60526
     2018.69952         2.20891         4.53534
     2018.70225        14.67584         5.06144
     2018.70499         5.08176         4.63852
     2018.70773         5.75969         4.86703
     2018.71047         1.21661         4.64022
     2018.71321        -0.58846         4.49868
     2018.71594         2.58847         4.47310
     2018.71868        -1.70461         4.45775
     2018.72142         1.65632         4.49868
     2018.72416         8.41225         4.77835
     2018.72690         3.20219         4.90369
     2018.72963         5.17510         4.62231
     2018.73237        -4.65697         4.57030
     2018.73511        -4.92805         4.59503
     2018.73785         5.18988         4.52852
     2018.74058         1.47180         4.47907
     2018.74332         5.79973         4.44581
     2018.74606         3.81166         4.56689
     2018.74880        -0.84142         4.45690
     2018.75154         1.46251         4.72208
     2018.75427         4.61944         4.87470
     2018.75701         5.63436         4.66836
     2018.75975        -1.12370         4.64278
     2018.76249         3.19022         4.43643
     2018.76522        -5.55286         4.60100
     2018.76796         1.40207         4.59844
     2018.77070         8.19099         4.51488
     2018.77344         4.40992         4.49441
     2018.77618         1.86085         4.50635
     2018.77891         5.45777         4.60952
     2018.78164         0.74967         4.88579
     2018.78439         4.15363         4.54131
     2018.78713        -0.88445         4.48845
     2018.78987        -7.70852         4.55240
     2018.79260        -4.00359         4.57286
     2018.79534         5.66833         4.45604
     2018.79808        -3.18274         4.47821
     2018.80082         2.97618         4.50976
     2018.80355         5.62111         4.55410
     2018.80629         4.91604         4.60782
     2018.80903         4.28896         4.52340
     2018.81177         7.72689         4.81843
     2018.81451        10.91382         4.69309
     2018.81724         9.85574         4.82610
     2018.81998         4.31667         4.55325
     2018.82272        11.05960         4.64960
     2018.82546         7.82852         4.91393
     2018.82820        -2.18255         4.46372
     2018.83093         0.95838         4.73998
     2018.83367         1.07630         4.64022
     2018.83641         8.20623         4.79285
     2018.83915         3.12515         4.49186
     2018.84188         4.89408         4.57798
     2018.84462         4.32101         4.59844
     2018.84736        -5.79907         4.66495
     2018.85010         3.74386         4.49697
     2018.85284        -2.46721         4.48589
     2018.85569        -6.68204         4.90199
     2018.85831        -3.68236         4.59332
     2018.86105        -7.03343         4.82610
     2018.86379        -4.08651         4.79967
     2018.86653         1.88042         4.54387
     2018.86926        -7.79366         4.64875
     2018.87200        -2.05573         4.49356
     2018.87474        -0.10380         4.58650
     2018.87748        -3.01088         4.54387
     2018.88021         0.44105         4.57627
     2018.88295         1.00498         4.69053
     2018.88569        -0.41610         4.60952
     2018.88843         7.11583         4.59673
     2018.89117         2.44376         4.86874
     2018.89390         2.36468         4.62146
     2018.89664        -3.75439         4.69991
     2018.89938        -1.55647         4.59162
     2018.90212         0.82646         4.59759
     2018.90485         3.41439         4.62828
     2018.90759         0.79931         4.68797
     2018.91033         3.82724         4.80052
     2018.91307         4.14017         4.76215
     2018.91581         3.30209         4.71099
     2018.91854         6.50402         4.73487
     2018.92128        -1.30205         4.52937
     2018.92402        -4.69913         4.65727
     2018.92676        -2.05020         4.58821
     2018.92950         1.38572         4.58821
     2018.93223         0.89065         4.62402
     2018.93497        -2.99942         4.57883
     2018.93771        -2.09150         4.75277
     2018.94045         0.57643         4.67006
     2018.94318         2.87836         4.71270
     2018.94592         7.84928         4.74169
     2018.94866         3.42521         4.48418
     2018.95140         6.97914         4.60526
     2018.95414         9.00906         4.63169
     2018.95687         6.94499         4.57627
     2018.95961         0.42592         4.53364
     2018.96235         0.45584         4.57286
     2018.96509         0.53777         4.61294
     2018.96783        -5.65331         4.72463
     2018.97056         3.88162         4.77921
     2018.97330        -1.56745         4.57456
     2018.97604        -1.30553         4.60270
     2018.97878        -1.15660         4.47224
     2018.98151       -13.62367         4.47395
     2018.98425        -2.03075         4.73828
     2018.98699       -10.06682         4.72378
     2018.98973        -6.79289         4.55751
     2018.99247        -1.97297         4.62146
     2018.99520        -6.60804         4.64107
     2018.99794       -11.96612         4.77153
     2018.99971       -16.61129         8.96836
     2019.00427       -10.33141         7.40798
     2019.00616        -2.04434         4.62573
     2019.00889        -3.50441         4.64022
     2019.01163        -2.24148         4.54472
     2019.01437        -1.33856         4.53790
     2019.01711         0.11737         4.53790
     2019.01984        -7.15370         4.60697
     2019.02258        -3.17678         5.01284
     2019.02532       -14.02485         5.11430
     2019.02806        -4.69093         5.03586
     2019.03080        -7.42800         4.87300
     2019.03353        -8.98807         4.45519
     2019.03627       -13.54215         4.42705
     2019.03901        -4.81922         4.45604
     2019.04175        -4.11729         4.45349
     2019.04449         1.08363         4.46713
     2019.04722        -7.74944         4.58906
     2019.04996       -12.23951         4.70502
     2019.05270        -7.77259         4.91563
     2019.05544        -8.63366         4.81843
     2019.05817        -9.24774         4.69394
     2019.06091        -4.32081         4.75959
     2019.06365        -6.00288         4.57286
     2019.06639        -7.31896         4.54813
     2019.06913        -5.47803         4.60015
     2019.07186       -12.74910         4.62999
     2019.07460        -6.34418         4.50976
     2019.07734        -1.93525         4.52426
     2019.08008        -1.98432         4.53619
     2019.08282        -0.60040         4.68882
     2019.08555        -1.42347         4.72890
     2019.08829        -6.64554         4.62061
     2019.09103         0.82038         4.58565
     2019.09377        -2.21969         4.42279
     2019.09650         1.66023         4.44752
     2019.09924        -3.91984         4.45519
     2019.10198        -7.44191         4.50379
     2019.10472        -3.45899         4.46883
     2019.10746        -0.36106         4.56604
     2019.11019        -2.90513         4.48589
     2019.11293         0.23179         4.62743
     2019.11567         1.70272         4.72975
     2019.11841        10.49065         4.50038
     2019.12662         2.68142         4.49356
     2019.12936        -5.95565         4.50294
     2019.13210        -7.44372         4.47566
     2019.13483        -3.80180         4.83548
     2019.13757        -4.44187         4.97617
     2019.14031         1.16206         5.01966
     2019.14305        -3.03702         4.73657
     2019.14579        -7.67709         4.52255
     2019.14852        -1.80516         4.49697
     2019.15126        -1.08124         4.49356
     2019.15400        -6.61431         4.44922
     2019.15674         1.65461         4.48333
     2019.15948        -4.11846         4.55069
     2019.16221        -9.13653         4.52511
     2019.16495        -3.82961         4.54643
     2019.16769        -9.73368         4.47566
     2019.17043        -5.41275         4.65301
     2019.17316        -4.18683         4.47651
     2019.17590        -6.21190         4.47736
     2019.17864       -11.32297         4.49015
     2019.18138        -7.99505         4.48759
     2019.18400       -10.41937         4.69991
     2019.18663        -5.23369         4.92757
     2019.18931        -7.70789         5.09725
     2019.19187       -16.06233         6.30378
     2019.19507       -12.43942         4.73828
     2019.19780        -9.10249         4.49697
     2019.20054        -6.08856         4.60015
     2019.20328       -11.31164         4.47054
     2019.20602       -12.76871         4.45349
     2019.20876       -15.45978         4.49100
     2019.21149        -8.40186         4.47054
     2019.21423        -2.49593         4.47310
     2019.21697        -0.24500         4.45604
     2019.21971        -2.24108         4.79114
     2019.22245        -3.25615         4.60100
     2019.22518        -8.58123         4.51744
     2019.22792        -5.29830         4.52767
     2019.23066        -6.63137         4.64107
     2019.23340        -5.54045         4.44496
     2019.23613        -8.19052         4.41853
     2019.23887        -9.19459         4.52085
     2019.24161       -10.28167         4.59844
     2019.24435        -8.75274         4.59759
     2019.24709        -2.90081         4.70673
     2019.24982        -4.50089         4.86703
     2019.25256        -0.47196         4.77750
     2019.25530        -5.72804         4.54387
     2019.25804        -3.28511         4.57542
     2019.26078         2.16982         4.50806
     2019.26351        -2.63226         4.54387
     2019.26625        -7.10233         4.45093
     2019.26899        -8.42940         4.59844
     2019.27173        -7.62748         4.70417
     2019.27446        -4.95955         4.72293
     2019.27720        -3.61762         4.84316
     2019.27994        -5.56270         4.68882
     2019.28268        -7.22377         4.71781
     2019.28542        -3.22085         4.46713
     2019.28815        -0.70992         4.66410
     2019.29089        -0.01299         4.58736
     2019.29363        -7.71007         4.49441
     2019.29637        -6.03714         4.56348
     2019.29911        -1.26921         4.49697
     2019.30179        -7.78841         4.81928
     2019.30458        -8.42536         4.74510
     2019.30732        -9.68643         4.84742
     2019.31006        -3.98951         4.55836
     2019.31279        -7.88758         4.50465
     2019.31553         0.97834         4.47566
     2019.31827         2.09427         4.58821
     2019.32101        -5.08380         4.47907
     2019.32375       -12.96988         4.47821
     2019.32648        -6.37395         4.52682
     2019.32922        -4.20202         4.58650
     2019.33196        -2.32610         4.71184
     2019.33470         0.57583         4.65216
     2019.33744        -7.11824         4.48162
     2019.34017        -9.32532         4.46883
     2019.34291        -1.94039         4.46628
     2019.34565        -1.76646         4.57627
     2019.34839        -4.31854         4.55581
     2019.35112        -0.85361         4.50635
     2019.35386        -5.40669         4.47566
     2019.35660         2.09924         4.63596
     2019.35933         1.80716         4.53108
     2019.36208        -0.26791         4.67603
     2019.36481         5.27802         4.53449
     2019.36755         2.53895         4.51488
     2019.37029        -2.76313         4.47992
     2019.37303         0.02680         4.47736
     2019.37577         5.94273         4.58565
     2019.37850         2.96165         4.57286
     2019.38124         8.43758         4.74510
     2019.38398         2.61550         4.80308
     2019.38672         0.51943         4.72634
     2019.39219        -0.11672         5.71373
     2019.39493         2.68521         4.44922
     2019.39767         3.81914         4.48162
     2019.40041        -1.80394         4.45860
     2019.40314         1.92899         4.46798
     2019.40588         8.73192         4.73401
     2019.40862         1.76984         4.57115
     2019.41136         6.51377         4.70076
     2019.41410         6.69269         4.53705
     2019.41683         1.12462         4.48248
     2019.41957         4.47755         4.84571
     2019.42231        -0.41253         4.57627
     2019.42505        -0.33960         4.59759
     2019.42778         5.37833         4.67859
     2019.43052        10.63925         4.80820
     2019.43326        -1.76682         4.79285
     2019.43600        -0.40789         4.61805
     2019.43874         4.37803         5.15182
     2019.44147        -2.47504         4.58650
     2019.44421         2.98588         4.57456
     2019.44695         0.25781         4.64789
     2019.44969         7.62674         4.58053
     2019.45243         2.51866         4.56433
     2019.45516         4.04159         4.72549
     2019.45790         1.04452         4.72208
     2019.46064         6.12044         4.79711
     2019.46338         2.84837         4.86618
     2019.46611         7.43730         4.80649
     2019.46885         5.47822         4.71099
     2019.47159         6.96615         4.60015
     2019.47433         4.66208         4.59844
     2019.47707         4.09500         4.58991
     2019.47980         2.61193         4.59673
     2019.48254         6.48885         4.69138
     2019.48528         6.98678         4.81928
     2019.48802        -1.67929         4.78006
     2019.49076        -0.53037         4.48333
     2019.49349         2.10856         4.49356
     2019.49623         5.20149         4.61720
     2019.49897         3.02441         4.49527
     2019.50165         5.07722         6.88274
     2019.50444        -0.19173         9.42795
     2019.50713        -1.40193         4.66836
     2019.50969        -3.68838         4.98129
     2019.51237         4.10043         5.19360
     2019.51540         3.78097         4.49868
     2019.51813         1.53790         4.49612
     2019.52087         4.66782         4.55240
     2019.52361         3.74875         4.53193
     2019.52635         3.88568         4.54643
     2019.52908         6.49760         4.69905
     2019.53182         3.29653         4.65301
     2019.53456         1.88546         4.85936
     2019.53730         5.14038         4.62231
     2019.54004         6.83231         4.69309
     2019.54277         8.35323         4.73572
     2019.54551         2.94616         4.81416
     2019.54825         8.39509         4.46457
     2019.55099        10.00001         4.51147
     2019.55373        11.36994         4.64704
     2019.55646         6.74487         4.82184
     2019.55920         2.22479         4.87897
     2019.56194        11.06172         4.57456
     2019.56468         5.89065         4.57712
     2019.56741         3.56057         4.51914
     2019.57015        -0.09450         4.51488
     2019.57289         0.63642         4.57456
     2019.57563         5.41535         4.48248
     2019.57837        10.92828         4.55581
     2019.58110        11.17420         4.63596
     2019.58384        11.84313         4.97106
     2019.58658         2.82806         4.61549
     2019.58932        11.15798         4.59503
     2019.59206        18.73091         4.53961
     2019.59479         8.35784         4.50635
     2019.59753         8.78576         4.65813
     2019.60027         6.42269         4.63937
     2019.60301         7.14362         4.52682
     2019.60574         9.42854         4.79370
     2019.60848        12.61547         4.72037
     2019.61122         2.70539         4.66239
     2019.61396         6.07832         4.67603
     2019.61670         7.99725         4.54813
     2019.61818        12.37846        15.14509
     2019.62211        12.14298         4.75704
     2019.62491        10.56903         4.48845
     2019.62765         8.05795         4.54472
     2019.63039        11.43588         4.52937
     2019.63312         2.99881         4.56945
     2019.63586        19.15273         4.81246
     2019.63860         9.82166         4.56945
     2019.64134         6.32158         4.65386
     2019.64407         9.32551         4.55581
     2019.64681         7.87144         4.55751
     2019.64955         2.69236         4.62573
     2019.65229        11.35729         4.53619
     2019.65503         5.00922         4.57456
     2019.65776         6.20114         4.76045
     2019.66050         4.72707         4.86874
     2019.66324         8.16700         4.72463
     2019.66598         9.90392         4.75107
     2019.66872         8.39985         4.51573
     2019.67145        10.35477         4.57456
     2019.67419         5.60070         4.52937
     2019.67693         4.63663         4.65045
     2019.67967         6.79155         4.66154
     2019.68240         2.83448         4.56433
     2019.68514        11.02141         5.10578
     2019.68788         8.36233         4.85424
     2019.69062         4.67326         4.84998
     2019.69336         5.29019         4.63169
     2019.69609         5.68611         4.60697
     2019.69883        10.87004         4.62573
     2019.70157         5.17896         4.60441
     2019.70431        11.17789         4.66751
     2019.70705         5.41682         4.63255
     2019.70978         7.64074         4.65727
     2019.71252        -0.05433         4.61890
     2019.71526         4.05260         4.59247
     2019.71800         4.59752         4.78688
     2019.72073         1.49345         4.66154
     2019.72347         3.78438         4.50294
     2019.72621         3.48530         4.58309
     2019.72895         3.49223         4.53619
     2019.73169         8.82516         4.53364
     2019.73442        10.26508         4.70673
     2019.73716         9.00600         4.76983
     2019.73990         9.08193         5.07593
     2019.74261         4.66681         4.63596
     2019.74538         4.42479         4.45775
     2019.74811         5.96871         4.64363
     2019.75085         5.84164         4.84657
     2019.75359         4.51657         4.71099
     2019.75633         2.98949         4.57798
     2019.75906         3.40442         4.50038
     2019.76180         1.06035         5.29251
     2019.76454         9.88627         5.63273
     2019.76728        13.00820         5.14074
     2019.77002         0.37212         4.59077
     2019.77275        -1.27995         4.65045
     2019.77549         2.94998         4.56263
     2019.77823         4.93890         4.59247
     2019.78097        10.33883         4.64534
     2019.78371         1.84776         4.56263
     2019.78644         0.53268         4.64789
     2019.78918        18.84461         5.24476
     2019.79192         7.72854         4.84912
     2019.79466        12.95146         4.70502
     2019.79739         5.46839         4.54728
     2019.80013         5.86231         4.59588
     2019.80287         3.60624         4.60782
     2019.80561         8.13017         4.71781
     2019.80835        -0.90691         4.58309
     2019.81108         3.06502         4.64704
     2019.81382         5.29895         4.70502
     2019.81656         4.09187         4.78773
     2019.81930         1.65980         4.77153
     2019.82203         1.00273         4.69053
     2019.82477        -0.73235         4.62146
     2019.82751        -3.66242         4.61890
     2019.83004        -4.44095         5.13988
     2019.83299        -0.75757         4.66665
     2019.83572         0.06236         4.60356
     2019.83846         4.55728         4.61208
     2019.84120         1.87321         4.58309
     2019.84394         0.32714         4.91648
     2019.84668        -4.48294         4.72463
     2019.84941         1.65499         4.70417
     2019.85215         3.20092         4.63510
     2019.85489         4.01184         4.65301
     2019.85763         3.06577         4.61038
     2019.86036        -1.71030         4.73657
     2019.86310        -0.83738         4.56348
     2019.86584         6.02055         4.67859
     2019.86858         2.71147         4.60356
     2019.87132         4.31340         5.04012
     2019.87405         2.03133         4.76556
     2019.87681         5.63129         5.31553
     2019.87953         3.68218         4.67006
     2019.88227        10.89911         4.61294
     2019.88501         5.78403         4.55240
     2019.88774         5.08696         4.67262
     2019.89048         7.76889         4.52852
     2019.89322        11.80481         4.59077
     2019.89596         1.56974         4.68371
     2019.89869        10.72066         4.79796
     2019.90143         5.63959         4.75533
     2019.90417         3.40852         4.65898
     2019.90691         3.12444         4.54728
     2019.90965         1.16337         4.54131
     2019.91238         2.63730         4.55581
     2019.91512         8.27322         4.57030
     2019.91786        12.10615         4.52852
     2019.92060         6.17808         4.54302
     2019.92607         7.85593         4.69650
     2019.92881         5.78285         4.72037
     2019.93155         8.02378         4.79541
     2019.93429         7.54171         4.57115
     2019.93702         1.14063         4.52767
     2019.93976         1.42956         4.67944
     2019.94250        -1.46451         4.59162
     2019.94524        -5.45459         4.55240
     2019.94798        -2.05166         4.50465
     2019.95071        -0.15973         4.86959
     2019.95345         2.16619         4.79370
     2019.95619         3.83212         4.69905
     2019.95893        -0.91496         4.57798
     2019.96167         3.83997         4.59077
     2019.96440         9.25990         4.66239
     2019.96714        -1.66618         4.68712
     2019.96988        -4.27325         4.57627
     2019.97262        -4.36232         4.56860
     2019.97535        -2.12040         4.66239
     2019.97809        -4.76347         4.85936
     2019.98083        -3.64054         4.72122
     2019.98357        -5.69862         4.53278
     2019.98631        -4.23969         4.54216
     2019.98904        -7.45576         4.55581
     2019.99178        -1.83984         4.58821
     2019.99452        -0.32991         4.52852
     2019.99726         6.42801         4.54813
     2020.00000         9.55394         4.60185
     2020.00273        -1.01913         4.70929
     2020.00547         7.24979         4.84912
     2020.00821        -0.66328         4.83463
     2020.01095        -0.97535         4.67944
     2020.01368        -2.96643         4.79285
     2020.01642        -5.74150         4.64448
     2020.01916        -6.11757         4.65216
     2020.02190        -7.91065         4.66751
     2020.02464        -3.94972         4.69905
     2020.02737         0.64120         4.67177
     2020.03011        -3.37287         4.99237
     2020.03285       -12.87394         5.21236
     2020.03559        -4.67302         4.53790
     2020.03833        -3.97209         4.46542
     2020.04106        -2.99816         4.61635
     2020.04380       -10.25324         4.57030
     2020.04654        -9.46031         4.49100
     2020.04928        -7.51938         4.50294
     2020.05201        -2.96546         4.50209
     2020.05475        -0.24553         4.67006
     2020.05749        -4.57661         4.78773
     2020.06023        -8.25668         4.72975
     2020.06297        -6.78775         4.66324
     2020.06570        -3.87483         4.49697
     2020.06844        -2.01690         4.63510
     2020.07118        -3.14797         4.51744
     2020.07392        -5.61905         4.53278
     2020.07666        -2.50812         4.53023
     2020.07939        -5.80319         4.48418
     2020.08212        -4.87129         4.75533
     2020.08487        -5.96134         5.03415
     2020.08761        -4.07242         4.68541
     2020.09034        -6.17049         4.45945
     2020.09308        -7.04956         4.44325
     2020.09582        -4.26164         4.49100
     2020.09856        -9.20071         4.49356
     2020.10130       -11.26678         4.51999
     2020.10403       -10.59486         4.53278
     2020.10677       -12.77793         4.61208
     2020.10951       -11.62900         4.73657
     2020.11225        -3.06108         4.65727
     2020.11498        -5.18915         4.62914
     2020.11772        -9.51022         4.62487
     2020.12046        -8.45630         4.60526
     2020.12320        -8.18237         4.47310
     2020.12594       -11.25745         4.45775
     2020.12867       -11.60352         4.46542
     2020.13141       -11.81559         4.52170
     2020.13415       -13.28667         4.70758
     2020.13689        -7.24174         4.82951
     2020.13963        -6.25581         4.74425
     2020.14236        -2.72689         4.56263
     2020.14510        -3.00796         4.53534
     2020.14784       -11.64103         4.50550
     2020.15058       -13.13611         4.49697
     2020.15331       -11.00718         4.48930
     2020.15605        -9.84826         4.50294
     2020.15879        -6.43533         4.63596
     2020.16153       -10.62240         4.86788
     2020.16427        -6.50748         4.77153
     2020.16700        -4.00355         4.70417
     2020.16974        -8.77062         4.49868
     2020.17248        -4.43070         4.53193
     2020.17522        -5.23977         4.55666
     2020.17796        -7.83884         4.47736
     2020.18069        -3.85492         4.44325
     2020.18343        -7.79299         4.46798
     2020.18617        -8.37907         4.51999
     2020.18891        -8.33614         4.72293
     2020.19164        -5.71021         4.77750
     2020.19438        -8.65429         4.55325
     2020.19712        -8.94636         4.53364
     2020.19986        -7.67643         4.54387
     2020.20260        -8.62951         4.53705
     2020.20533        -8.31958         4.55836
     2020.20807        -7.68765         4.55154
     2020.21081       -12.21673         4.51999
     2020.21355       -10.89280         5.13903
     2020.21629        -8.08788         4.84998
     2020.21902        -9.28395         4.74339
     2020.22176        -9.86902         4.56092
     2020.22450         0.52390         4.55922
     2020.22724        -5.85517         4.53875
     2020.22997        -5.40824         4.53023
     2020.23271         1.21968         4.57030
     2020.23545        -5.60639         4.56092
     2020.23819        -7.77146         4.58565
     2020.24093        -3.59254         4.87897
     2020.24366        -5.76461         5.16376
     2020.24640        -3.93468         4.73060
     2020.24914       -10.20276         4.53534
     2020.25188        -8.55283         4.54302
     2020.25462       -10.29191         4.52255
     2020.25735        -9.91098         4.56177
     2020.26009         2.74995         4.51829
     2020.26283        -0.55713         4.52767
     2020.26557        -6.88120         4.57712
     2020.26830        -6.41827         4.78688
     2020.27104        -3.68435         4.81843
     2020.27378        -4.35242         4.55666
     2020.27652        -1.00749         4.57201
     2020.27926        -1.86357         4.98555
     2020.28199        -4.37064         4.60100
     2020.28473       -11.78472         4.60782
     2020.28747        -6.41279         4.72037
     2020.29021        -1.06786         4.73401
     2020.29295        -4.81094         4.84230
     2020.29568         1.79299         4.91648
     2020.29842         0.91092         4.56945
     2020.30116        -0.41916         4.55154
     2020.30390        -1.47123         4.53364
     2020.30663        -6.12530         4.54813
     2020.30937        -8.18738         4.66751
     2020.31211        -9.56845         4.68797
     2020.31485        -1.59853         4.98129
     2020.31759        -2.57860         4.84827
     2020.32032        -2.73767         5.06911
     2020.32306        -6.66275         4.55495
     2020.32580        -8.45082         4.58565
     2020.32854        -0.12689         4.59759
     2020.33128        -3.80097         4.53790
     2020.33401        -3.38304         4.54813
     2020.33675         4.61889         4.55154
     2020.33949        -3.88019         4.94036
     2020.34223        -6.86426         4.88835
     2020.34496       -13.76934         5.17570
     2020.34770        -9.61041         4.47566
     2020.35044        -1.91948         4.56433
     2020.35318        -5.83356         4.62573
     2020.35592        -6.40363         4.62573
     2020.35865        -0.93170         4.53278
     2020.36139         2.68622         4.52426
     2020.36413        -0.17285         4.64789
     2020.36688         4.18210         4.77068
     2020.36961        -5.55500         4.66836
     2020.37234        -4.65707         4.51061
     2020.37508        -2.45814         4.57286
     2020.37782         2.75578         4.50209
     2020.38056        -1.19629         4.57371
     2020.38329        -0.23537         4.48930
     2020.38603        -4.43544         4.49782
     2020.38877        -1.42651         4.59929
     2020.39151        -2.10359         4.80308
     2020.39425        -0.78566         4.66495
     2020.39698         0.41527         4.76983
     2020.39972        -6.15981         4.56007
     2020.40246        -6.79588         4.48077
     2020.40520        -5.33195         4.65898
     2020.40794         2.50797         4.49527
     2020.41067         1.62690         4.51914
     2020.41341        -2.38818         4.54387
     2020.41615        -4.09925         4.45775
     2020.41889        -8.06632         4.67006
     2020.42162        -6.11940         4.68626
     2020.42436        -2.14547         4.89687
     2020.42710         0.28146         4.70076
     2020.42984        -1.09362         4.67518
     2020.43258        -4.07569         4.61038
     2020.43531        -4.78576         4.62061
     2020.43805        -7.29984         4.59759
     2020.44079        -4.86791         4.59844
     2020.44353         2.67201         4.67603
     2020.44621        -7.51217         4.89176
     2020.44900        -5.73813         4.94803
     2020.45174         7.48879         5.12454
     2020.45448         1.23472         4.51658
     2020.45722         3.29565         4.52511
     2020.45995        -2.35443         4.53875
     2020.46269        -9.05250         4.48162
     2020.46543        -1.48757         4.49953
     2020.46817         4.04735         4.58821
     2020.47091         2.73428         4.51488
     2020.47364        -0.26680         4.67944
     2020.47638        -0.77187         4.71526
     2020.47912        -1.73294         4.68541
     2020.48186         2.03098         4.54472
     2020.48459         6.47391         4.79882
     2020.48733         4.52284         4.73828
     2020.49007         2.25076         4.59503
     2020.49292        -0.41106         4.84912
     2020.49555         0.34962         4.60356
     2020.49828         0.50354         4.58224
     2020.50102        -1.04353         4.95656
     2020.50376        -1.98060         4.94718
     2020.50650        -5.61268         4.59929
     2020.50924        -5.51975         4.48845
     2020.51197        -0.79283         4.56860
     2020.51471        -2.25890         4.49527
     2020.51745         2.71503         4.52340
     2020.52019         5.92995         4.60611
     2020.52292         3.61788         4.56519
     2020.52566         2.74081         4.82013
     2020.52840         2.34173         4.93098
     2020.53114         3.66466         4.84486
     2020.53388         2.35959         4.66068
     2020.53661         2.40651         4.63425
     2020.53935         0.79444         4.62146
     2020.54209         2.35636         4.74254
     2020.54483         2.37329         4.57798
     2020.54757         2.56022         4.57456
     2020.55030         4.97014         4.61038
     2020.55304        12.77607         4.80393
     2020.55578         9.54000         4.71014
     2020.55852         9.93892         4.85680
     2020.56125         5.67785         4.60952
     2020.56399        10.45478         4.58565
     2020.56673         6.88970         4.80137
     2020.56947         8.03863         4.66154
     2020.57221         6.24255         4.81161
     2020.57494         3.88248         4.64704
     2020.57768         9.63141         4.62402
     2020.58042         7.69433         4.92927
     2020.58316         3.53626         4.98385
     2020.58590         6.83619         4.91393
     2020.58863        10.03511         4.62402
     2020.59137         5.72504         4.53278
     2020.59409        12.60691         4.65216
     2020.59685         8.57389         4.91648
     2020.59958         2.73082         4.70673
     2020.60232         6.62675         4.61720
     2020.60506         6.30867         4.80137
     2020.60780         4.96360         5.06997
     2020.61054         9.77852         4.95997
     2020.61327         7.88545         4.59077
     2020.61601         5.91338         4.60867
     2020.61875         4.41530         4.70161
     2020.62149         3.11123         4.54728
     2020.62423        11.99816         4.71867
     2020.62696         4.62408         4.79541
     2020.62970         5.95501         4.86703
     2020.63244        10.18194         4.97958
     2020.63518        10.52586         5.07679
     2020.63791         9.01379         4.85936
     2020.64065        11.00371         4.68626
     2020.64339         5.25264         4.63169
     2020.64613        13.95757         4.75448
     2020.64887         8.26949         4.60270
     2020.65160         7.88342         4.55581
     2020.65434         8.40435         4.72208
     2020.65708         9.86627         5.07934
     2020.65982        15.38620         5.03756
     2020.66256        12.90213         4.96253
     2020.66529         9.24905         4.60015
     2020.66803         9.07398         4.63596
     2020.67077        12.32490         4.82866
     2020.67351        10.21383         4.67944
     2020.67624        12.98576         4.64619
     2020.67898         7.76068         4.58650
     2020.68171         7.54858         4.95230
     2020.68448         8.51558         5.10919
     2020.68720         9.57046         4.93780
     2020.68993         5.52139         5.08958
     2020.69267        13.56632         4.67859
     2020.69541        10.39524         4.81587
     2020.69815         4.44917         4.65386
     2020.70089         6.91809         4.60952
     2020.70362         4.13102         4.77153
     2020.70636        20.04795         5.22345
     2020.70908         8.32583         5.90046
     2020.71184         9.84480         5.23027
     2020.71457         8.52073         5.20469
     2020.71731         1.70465         4.73401
     2020.72005         5.75258         4.76642
     2020.72279        10.40551         4.64875
     2020.72553        15.42043         4.76045
     2020.72826        11.14636         4.86959
     2020.73100         4.84529         4.90540
     2020.73374        10.17321         4.74254
     2020.73648         8.72214         5.48180
     2020.73921        10.56406         5.54575
     2020.74195         9.06799         4.89773
     2020.74469         6.47592         4.64875
     2020.74743         5.04884         4.58736
     2020.75017         7.27877         4.69905
     2020.75290         2.40570         4.64960
     2020.75564         6.17562         4.61635
     2020.75838        11.37655         4.70417
     2020.76112         7.40248         4.81416
     2020.76386         5.60440         4.86618
     2020.76659        14.88633         4.91393
     2020.76933        10.69625         5.09981
     2020.77207        13.31318         4.63169
     2020.77481        13.10211         4.66580
     2020.77754        10.00503         4.59418
     2020.78028        17.26396         4.75192
     2020.78302        10.45789         4.80990
     2020.78576         4.34081         4.67262
     2020.78850         3.25774         4.61805
     2020.79123         7.43767         5.09128
     2020.79397         7.96859         5.65831
     2020.79672         7.71755         5.89108
     2020.79945         3.66244         4.64107
     2020.80219         3.90137         4.68030
     2020.80492        10.53330         4.70929
     2020.80766         0.83122         4.62999
     2020.81040         3.24715         4.66068
     2020.81314         8.10208         4.57115
     2020.81587         0.97100         4.55495
     2020.81861         9.56193         4.62828
     2020.82135         6.09086         5.31809
     2020.82409         3.98078         4.99493
     2020.82683         1.99171         5.22089
     2020.82956         1.18863         5.01028
     2020.83230         5.77756         4.68882
     2020.83504         4.73049         4.68285
     2020.83778         7.34541         4.58139
     2020.84052         9.78534         4.75533
     2020.84325         6.79827         4.90881
     2020.84599         3.22019         4.85424
     2020.84873        13.04912         4.53619
     2020.85147         5.12505         4.99237
     2020.85420        13.97197         5.04865
     2020.85694         7.79590         5.14329
     2020.85968         9.29283         4.69309
     2020.86242        10.45575         4.56007
     2020.86516         9.51068         4.67689
     2020.86789        14.87560         4.73913
     2020.87063        11.26753         4.62658
     2020.87337        12.28946         4.67859
     2020.87611         9.72038         4.81928
     2020.87885        12.81531         4.86191
     2020.88158        10.30124         4.90796
     2020.88432         8.40916         5.43405
     2020.88706        -1.08491         6.63205
     2020.88980         1.24602         5.30360
     2020.89255         6.02498         4.67092
     2020.89527         6.19187         4.77153
     2020.89801         6.59579         4.82013
     2020.90075         7.44872         4.73401
     2020.90349         4.76365         4.69820
     2020.90622         5.14857         4.67689
     2020.90896        -0.64550         4.88664
     2020.91170        -1.75157         4.80734
     2020.91444         6.34635         4.80564
     2020.91718        -0.04172         5.25073
     2020.91991        -1.46279         5.28228
     2020.92265        -0.76587         5.11089
     2020.92539        -2.51294         4.67347
     2020.92813        -4.61102         4.58139
     2020.93086         0.95291         4.63937
     2020.93360        -2.36916         4.76812
     2020.93634         2.58476         4.68712
     2020.93908        -6.89531         4.67944
     2020.94182        -4.46938         4.61720
     2020.94455        -2.96846         4.63255
     2020.94729        -4.96053         4.81161
     2020.95003        -7.80560         5.45026
     2020.95277        -5.83468         5.64807
     2020.95551       -10.11475         5.58583
     2020.95824        -4.93983         4.65045
     2020.96098        -0.12990         4.67347
     2020.96372        -0.19197         4.60611
     2020.96646        -1.08705         4.70673
     2020.96919        -0.95712         4.72549
     2020.97193        -7.60919         4.57201
     2020.97467        -6.12627         4.69309
     2020.97741        -6.85434         4.67177
     2020.98015        -5.79441         4.77921
     2020.98288        -0.17749         5.45196
     2020.98562         2.65844         6.13154
     2020.98836        -2.27263         5.84248
     2020.99110        -0.11171         4.56433
     2020.99384        -1.65278         4.54898
     2020.99657        -5.17386         4.57201
     2020.99931         2.92307         4.52937
     2021.00205        -9.11800         4.57286
     2021.00479        10.82792         4.82951
     2021.00752        -0.51115         4.59759
     2021.01026         0.18378         4.58139
     2021.01300         0.85170         4.57286
     2021.01572         0.07860         5.20042
     2021.01848        -5.91444         6.62353
     2021.02121        -2.73552         6.21766
     2021.02395        -8.04559         4.94036
     2021.02669        -6.50767         4.61720
     2021.02943        -4.36074         4.58394
     2021.03216         2.77419         4.60867
     2021.03490         2.68411         4.89858
     2021.03764        -8.98696         4.58991
     2021.04038       -11.55303         4.69138
     2021.04312        -4.88411         4.55495
     2021.04585        -2.83718         4.61123
     2021.04859        -3.34925         4.89432
     2021.05133        -8.56333         5.80155
     2021.05407        -1.66340         6.23386
     2021.05681        -1.10148         4.89176
     2021.05954        -5.31255         4.59162
     2021.06228        -5.25562         4.58309
     2021.06502        -6.08270         4.57456
     2021.06776         2.76523         4.57030
     2021.07049        -4.41884         4.56177
     2021.07323        -4.55392         4.57968
     2021.07597        -7.70499         4.71014
     2021.07871        -4.85206         4.58821
     2021.08145        -2.58414         4.64193
     2021.08418       -12.13021         6.11960
     2021.08692        -8.07629         7.17520
     2021.08966        -9.53036         6.02922
     2021.09240       -10.68543         4.57371
     2021.09514        -9.68451         4.83463
     2021.09787        -4.81758         4.67859
     2021.10061        -6.46065         4.57456
     2021.10335        -6.92773         4.57627
     2021.10609        -8.04980         4.56348
     2021.10882        -8.42687         4.53193
     2021.11156       -10.01895         4.54131
     2021.11430        -7.55302         4.52340
     2021.11704        -6.55909         6.88615
     2021.11978        -1.99016         6.04456
     2021.12251        -2.10724         6.28672
     2021.12527       -18.01428         4.69479
     2021.12799        -7.04439         4.58991
     2021.13073        -6.95846         4.62146
     2021.13347       -10.65954         4.66068
     2021.13620        -2.52261         4.62658
     2021.13894        -8.44268         4.57371
     2021.14168        -9.04276         4.51744
     2021.14442        -2.62383         4.56348
     2021.14715        -7.25190         4.62914
     2021.14989        -3.99498         7.27838
     2021.15263         5.51594         7.12916
     2021.15537         0.36487         7.85478
     2021.15811        -4.83720         4.77238
     2021.16084        -6.32227         4.65216
     2021.16358        -3.03735         4.66239
     2021.16632         1.96658         4.73060
     2021.16906        -2.30749         4.56774
     2021.17180        -7.54057         4.56007
     2021.17453       -10.69564         4.68626
     2021.17727        -1.50971         4.71781
     2021.18001       -11.38679         4.72890
     2021.18275       -10.53086         4.76386
     2021.18548        -4.25094         6.05480
     2021.18822        -2.75701         6.91599
     2021.19098        -2.41004         6.03433
     2021.19370        -9.25616         4.59673
     2021.19644        -8.02623         4.54984
     2021.19917        -7.43630         4.58139
     2021.20191        -6.44338         4.51232
     2021.20465        -7.12345         4.52511
     2021.20739        -9.18152         4.58309
     2021.21013        -1.77660         4.66921
     2021.21286        -7.97267         4.64448
     2021.21560        -6.35475         4.54813
     2021.21834        -7.00282         5.50312
     2021.22108        -0.62489         6.71561
     2021.22381        -7.31797         5.63187
     2021.22655        -5.33504         4.76386
     2021.22929         0.94189         4.62573
     2021.23203        -0.97219         4.52340
     2021.23477        -7.73426         4.53619
     2021.23750       -10.82333         4.59673
     2021.24024        -2.87841         4.54984
     2021.24298        -7.85748         4.56007
     2021.24572       -11.19355         4.52511
