# ================= DQRFIT RESULTS ================
# INPUT FILE: series/WALL.rad
# OUTPUT: LDETRENDED
# FILTER FUNCTION: f(t)
# f(t)=+line(t)
# line(t)=+P 1+P 2*t
# heav(t)=(t<0?0:1)
# TOTAL OBSERVATIONS MTOT=  453
# INITIAL TIME INTERVAL= 2019.4771 - 2006.6119 = 12.8652
# TOTAL OBSERVATIONS AFTER PREFILTER M=  452
# TIME-SPAN=    0.0000 -    0.0000 =  0.0000
# OBSERVATIONS: USED M=   452 REJECTED MTOT-M=     1 %USED=   99.7793
# N=  2 PARAMETERS
# MAXSIG= 175.00000
# MAXRES=  27.09211
# SCALE FACTOR FOR LENGTHS: SCL=  10.00000
# SCALE FACTOR FOR SIGMAS: SCLSIG=   1.00000
# CHI^2=    687.192 DOF=   450 CHI^2/DOF=   1.52709
# RMS=      7.031 SDEV=      7.038 MEAN=    0.11014
#  P #       PARAMETER +-    SIGMA %error PARAMETER NAME
# P 1 =      4960.63141 +-  229.991   4.64 YZERO                              
# P 2 =        -2.46122 +-    0.114   4.63 SLOPE                              
#       T            LDETRENDED       SIG_OBS
     2006.61191       -19.59745         7.13525
     2006.61465       -17.89672         7.00674
     2006.61739       -15.26098         7.06605
     2006.62013       -13.55824         7.28231
     2006.62287       -19.51550         7.19581
     2006.62560       -21.83276         7.12166
     2006.62834       -17.84102         7.16368
     2006.63108       -20.76729         6.97955
     2006.63382       -15.91055         6.98449
     2006.63656       -19.80681         7.20199
     2006.63902       -16.18875         7.94344
     2011.64682        -3.60844         7.15132
     2011.64956        -8.66670         7.15750
     2011.65230        -9.52597         7.16121
     2011.65504        -2.96423         7.22052
     2011.65777        -8.30349         7.15008
     2011.66051       -10.14075         7.27860
     2011.66325        -2.87901         7.11301
     2011.66599        -7.95127         7.11178
     2011.66872        -5.62553         7.13896
     2011.67146        -8.91880         6.91158
     2011.67420        -5.69006         6.88316
     2011.67694        -1.76632         6.87204
     2011.67968        -3.10458         6.92888
     2011.68241        -8.20584         7.05864
     2011.68515        -4.68310         7.04628
     2011.68789       -10.11837         6.99809
     2011.69063        -8.55863         6.99932
     2011.69337        -8.52489         7.03639
     2011.69610        -9.22615         7.19581
     2011.69884       -20.37941         7.08706
     2011.70158       -17.25367         6.99191
     2011.70432       -11.29994         6.98820
     2011.70705       -12.54120         7.24029
     2011.70979        -9.98846         6.95483
     2011.71253       -12.71372         7.01662
     2011.71527       -13.11898         7.16368
     2011.71796        -5.05336         7.25636
     2014.57906         2.95944         6.99809
     2014.58180         5.88118         7.16738
     2014.58454         4.93192         7.14143
     2014.58727         0.79065         7.35522
     2014.59001         4.49139         7.23535
     2014.59275         6.10713         7.24277
     2014.59549         1.38987         7.29343
     2014.59823         5.77561         7.41330
     2014.60096         3.08635         7.34657
     2014.60370         3.35308         7.19210
     2014.60644        -2.35618         7.23659
     2014.60918         1.57756         7.24647
     2014.61191         3.49930         7.60237
     2014.61465         7.59604         7.20199
     2014.61739        10.12578         7.41577
     2014.62013         8.13052         7.36263
     2014.62287         7.32625         7.15997
     2014.62560        10.53099         7.14267
     2014.62834         5.82973         7.10683
     2014.63108         9.17447         7.22917
     2014.63382         9.55621         7.41206
     2014.63656        16.05195         7.21311
     2014.63929         6.57368         7.24771
     2014.64203         3.91742         7.13649
     2014.64477         3.54116         7.04628
     2014.64751         3.65690         7.18716
     2014.65024         5.86064         7.12290
     2014.65298         8.24538         7.07717
     2014.65572         8.72112         7.09818
     2014.65846        10.67785         7.17727
     2014.66120        10.91059         7.21434
     2014.66393        12.72533         7.12537
     2014.66667        15.62507         7.13031
     2014.66941         9.13281         7.17974
     2014.67215         9.74455         7.11795
     2014.67488         5.13528         7.07965
     2014.67762         3.13302         7.08582
     2014.68036         6.33976         7.09324
     2014.68310         1.94450         7.14020
     2014.68584         3.72824         7.14638
     2014.68857         8.58098         7.09447
     2014.69131         5.18472         7.04134
     2014.69405         5.41645         7.07223
     2014.69679         6.51619         7.08830
     2014.69953         9.32493         7.12537
     2014.70226        10.12067         7.11672
     2014.70500         3.93641         7.15008
     2014.70774        10.83715         7.28602
     2014.71048        14.39988         7.17603
     2014.71321         7.30962         7.24277
     2014.71595         7.13836         7.07100
     2014.71869         9.35610         7.02651
     2014.72143        14.47184         7.00550
     2014.72417         9.79958         7.03516
     2014.72690        11.70032         7.10189
     2014.72964         5.69205         7.05369
     2014.73238         7.82679         7.12908
     2014.73512         2.90253         7.04010
     2014.73786        10.40427         7.00674
     2014.74059         5.75601         7.10436
     2014.74333         7.01275         7.06976
     2014.74607        16.57848         7.12166
     2014.74881        10.79922         7.00550
     2014.75154         6.38796         7.14885
     2014.75428         6.54270         7.01291
     2014.75702         3.08044         7.02280
     2014.75976         3.77818         7.00674
     2014.76250         8.59291         6.99314
     2014.76523         8.18965         6.98696
     2014.76797        10.82039         7.04134
     2014.77071         3.32713         7.06482
     2014.77345         2.67287         7.01909
     2014.77619         6.35661         6.98820
     2014.77892        10.01635         7.03763
     2014.78166         9.26608         6.99314
     2014.78440         6.61482         7.06605
     2014.78714         0.26356         7.20075
     2014.78987         9.48930         6.99438
     2014.79261         6.22704         7.01909
     2014.79535         7.07678         6.98573
     2014.79809         9.67151         7.16491
     2014.80083         7.91425         7.10436
     2014.80356         5.07999         7.23412
     2014.80630         8.04873         7.07347
     2014.80904         3.22947         7.05740
     2014.81178        11.58521         6.99191
     2014.81452         0.69595         7.17233
     2014.81725         9.86968         7.08212
     2014.81999        12.28742         6.97955
     2014.82273         9.98416         7.08459
     2014.82547         8.75890         7.01786
     2014.82820         9.49964         7.04999
     2014.83094         0.14638         7.18098
     2014.83368        27.09211         7.62091
     2014.83642        -1.23815         7.07223
     2014.83916         7.64059         7.00056
     2014.84189         9.62633         7.07841
     2014.84463        -1.39993         7.12043
     2014.84737         5.11681         7.13525
     2014.85011         6.32855         7.09324
     2014.85285         7.78628         7.03763
     2014.85558         9.55802         7.08088
     2014.85832        13.29076         7.10312
     2014.86106         8.82450         7.05617
     2014.86380         7.59224         7.11178
     2014.86653         7.89898         7.26501
     2014.86927        13.36971         7.13896
     2014.87201         8.95145         7.31197
     2014.87475         4.86919         7.13402
     2014.87749         5.62893         7.15132
     2014.88022         6.94467         7.09077
     2014.88296        10.23941         7.22546
     2014.88570         0.30815         7.42442
     2014.88844         7.46088         7.52452
     2014.89118        -4.58238         7.68764
     2014.89391         7.01136         7.37005
     2014.89665        12.58410         7.35522
     2014.89939         6.98084         7.40836
     2014.90213         2.49458         7.36263
     2014.90486         0.23031         7.15997
     2014.90760         0.11105         7.25883
     2014.91034         0.72179         7.28602
     2014.92677         4.58522         7.14020
     2014.93498         6.08044         7.20940
     2014.94588        -5.40273         7.17727
     2014.97605        -1.58649         6.99561
     2014.97879        -0.49275         7.02898
     2014.99248         2.52194         6.95113
     2015.00343         0.39290         6.97337
     2015.00616        -3.13736         6.94248
     2015.00890         1.43838         7.14761
     2015.01712         1.54359         7.04875
     2015.02259         7.42407         7.21187
     2015.03081        10.28828         7.02156
     2015.03354         3.54102         7.09200
     2015.04449         0.89098         7.07470
     2015.04997         6.23445         7.12290
     2015.05271         2.82419         6.97955
     2015.05545         3.41593         6.92518
     2015.05818         7.81467         6.94866
     2015.06366         8.27714         7.12537
     2015.06640         6.05588         6.98820
     2015.06914         2.90062         6.94248
     2015.07187         3.05536         6.97461
     2015.07735        -0.31016         6.98326
     2015.08009        -1.66942         7.01044
     2015.08282         4.05931         6.98449
     2015.08556         4.58905         6.97831
     2015.08830         0.63479         7.01044
     2015.09104         9.01053         7.05122
     2015.09378         1.39227         7.11672
     2018.62560         2.21987         6.92394
     2018.62834        -2.49339         6.73981
     2018.63108        -0.60765         6.78059
     2018.63382        -1.56992         6.92147
     2018.63656         3.23682         6.77441
     2018.63929        -2.54144         7.04257
     2018.64203        -2.37470         7.04504
     2018.64477         3.40504         6.75464
     2018.64751        -1.14322         6.70768
     2018.65024         7.20652         6.81396
     2018.65298         4.00525         6.74723
     2018.65572         1.99399         6.75835
     2018.65846        -2.67227         6.72746
     2018.66120         4.13747         6.80778
     2018.66393         5.38421         6.80654
     2018.66667         1.34295         6.70892
     2018.66941        -0.47232         6.71880
     2018.67215        -2.71758         6.74228
     2018.67488        -0.31684         6.78554
     2018.67762         1.13590         6.77071
     2018.68036        -4.96136         6.87698
     2018.68310        -6.04162         6.81767
     2018.68584        -0.30988         6.79419
     2018.68857         3.18285         6.77812
     2018.69131         1.29959         6.78924
     2018.69405         0.88933         6.93012
     2018.69679         4.52407         6.77441
     2018.69953        -0.62919         6.75093
     2018.70226        -0.05645         6.96966
     2018.70500        -1.53272         6.97213
     2018.70774         1.19402         6.74723
     2018.71048        -3.23924         6.75093
     2018.71321        -2.23750         6.73734
     2018.71595         0.52424         6.74723
     2018.71869        -2.42102         6.81025
     2018.72143        -7.12128         6.76082
     2018.72417        -1.33355         6.76576
     2018.72690        -0.51781         6.76947
     2018.72964        -1.62407         6.76329
     2018.73238        -4.02033         6.77936
     2018.73512        -4.29959         6.76576
     2018.73786        -0.98085         6.73981
     2018.74059        -5.25212         6.71139
     2018.74333         2.71062         6.84979
     2018.74607        -0.21664         6.78059
     2018.74881        -3.93690         6.76824
     2018.75154        -2.01516         6.79048
     2018.75428        -1.84042         6.81025
     2018.75702         0.76232         6.84485
     2018.75976        -5.30395         6.72375
     2018.76250        -1.25421         6.78430
     2018.76523        -5.22947         6.89923
     2018.76797         4.04627         6.75464
     2018.77071        -1.69199         6.88192
     2018.77345         2.59175         6.71510
     2018.77619         1.64548         6.65702
     2018.77892         3.22522         6.73734
     2018.78166         2.93796         6.88316
     2018.78440        -1.77030         6.75217
     2018.78714         0.33044         6.74105
     2018.78987        -5.81582         6.84856
     2018.79261        -4.14508         6.65702
     2018.79535         3.13865         6.70768
     2018.79809        -2.76461         6.74105
     2018.80083         3.83713         6.75464
     2018.80356         2.04887         6.70892
     2018.80630         3.45961         6.84362
     2018.80904        -3.73365         6.70892
     2018.81178        -2.10592         7.05122
     2018.81452        -2.11018         6.75217
     2018.81725        -4.31744         6.75341
     2018.81999         3.62530         6.75093
     2018.82273        -5.53996         6.82879
     2018.82547         7.43178         6.90540
     2018.82820        -1.46549         6.76082
     2018.83094         1.66725         6.70645
     2018.83368        -2.97201         6.70521
     2018.83642         3.81073         6.85968
     2018.83916         0.23847         6.72993
     2018.84189        -0.33979         6.74970
     2018.84463         4.87195         6.74105
     2018.84737        -2.71632         6.67061
     2018.85011         2.89342         6.71757
     2018.85285        -0.11984         6.72746
     2018.85558        -2.66010         6.75711
     2018.85832         0.29764         6.70768
     2018.86106         1.23238         6.75835
     2018.86380         0.44411         6.81767
     2018.86653         4.89485         6.72622
     2018.86927        -4.84841         6.75958
     2018.87201        -0.81667         6.74846
     2018.87475         0.87907         6.70150
     2018.87749         3.73981         6.78801
     2018.88022         2.21655         6.85103
     2018.88296         3.56828         6.82755
     2018.88570         4.63402         6.91158
     2018.88844         6.95676         6.93630
     2018.89118        -8.85450         6.98449
     2018.89391        -6.41876         6.94866
     2018.89665        12.44298         7.18963
     2018.89939         2.44971         6.85597
     2018.90213         2.22745         6.85350
     2018.90486         4.11519         6.82137
     2018.90760        -1.44707         6.92270
     2018.91034        -1.27433         6.89057
     2018.91308         7.72041         7.02404
     2018.91582         4.27115         6.89799
     2018.91855        12.37888         6.87575
     2018.92129         5.54762         6.77565
     2018.92403         3.99836         6.79419
     2018.93772         1.26005         6.81767
     2018.94319         2.32953         6.82384
     2018.94867         2.70001         6.74599
     2018.95141         4.24975         6.95483
     2018.95415        10.63048         6.76329
     2018.95688         8.65822         7.90637
     2018.96236         5.04870         6.82261
     2018.96510        -0.91856         7.32309
     2018.96784         0.74318         6.79666
     2018.97057         6.81091         6.88810
     2018.97331         4.83865         6.80901
     2019.02807         1.84842         6.91035
     2019.03354        -8.98810         6.85103
     2019.03628        -3.85136         6.83126
     2019.03902        -0.33162         6.82508
     2019.04176        -9.38089         6.96225
     2019.07735         1.73471         6.76824
     2019.08009         4.67145         6.74723
     2019.08282         0.21019         6.96843
     2019.08556         1.99093         6.82508
     2019.08830       -17.84733         6.89428
     2019.09104        -2.93459         6.76947
     2019.09378        -0.54486         6.83744
     2019.12389         9.37027         6.94495
     2019.12663         2.16501         6.85968
     2019.12937        -0.16826         6.80531
     2019.13211         3.59048         6.76824
     2019.13484        -0.50378         6.80901
     2019.13758         2.26796         6.78801
     2019.14032         8.56470         6.81149
     2019.14306         1.60444         6.80284
     2019.14580        -3.13182         6.78306
     2019.14853         0.29091         6.77071
     2019.15127        -4.74835         6.87822
     2019.15401        -6.83061         6.81890
     2019.15675        -5.32287         6.84362
     2019.15948        -2.87413         6.95483
     2019.16222        -5.56639         6.89799
     2019.16496        -9.27166         6.87451
     2019.16770       -16.85892         6.78059
     2019.17044        -9.14818         6.73981
     2019.17317        -5.28544         6.75341
     2019.17591        -0.16370         6.93753
     2019.17865        -5.27996         6.83991
     2019.18139        -1.45222         6.76700
     2019.18413        -8.34849         6.73240
     2019.18686        -1.21975         6.75093
     2019.18960        -2.08901         6.81149
     2019.19234         4.28273         6.88192
     2019.19508        -0.70453         6.80407
     2019.19781        -6.72979         6.74105
     2019.20055        -5.36706         6.89181
     2019.20329        -7.16732         6.73363
     2019.20603        -7.79058         6.79419
     2019.20877        -9.82384         6.76700
     2019.21150        -9.24410         6.76700
     2019.21424        -5.83336         6.78677
     2019.21698        -8.13862         6.68050
     2019.21972        -6.14389         6.88934
     2019.22246       -15.67815         6.81149
     2019.22519        -5.03841         6.70768
     2019.22793        -2.17667         6.75588
     2019.23067        -7.33193         6.73981
     2019.23341        -3.25319         6.79048
     2019.23614        -5.50046         6.79171
     2019.23888        -6.67772         6.72622
     2019.24162        -8.73798         6.89305
     2019.24436        -6.27024         6.89428
     2019.24710        -8.19350         6.75958
     2019.24983        -9.32476         6.74970
     2019.25257        -4.67303         6.84238
     2019.25531        -6.78029         6.78183
     2019.25805        -3.11755         6.74105
     2019.26079        -2.37781         6.82632
     2019.26352         4.66993         7.04999
     2019.26626       -13.56533         6.87822
     2019.26900        -1.96559         6.84979
     2019.27174        -3.57886         7.09818
     2019.27447        -3.99812         6.72869
     2019.27721        -2.08338         6.91282
     2019.27995        -2.06464         6.74105
     2019.28269        -9.40790         6.82879
     2019.28543        -1.07916         6.73858
     2019.28816        -3.22343         6.67679
     2019.29090        -4.39469         6.73734
     2019.29364        -6.54295         6.78306
     2019.29638        -5.67521         6.88069
     2019.29911        -1.31347         6.85845
     2019.30185         1.74827         6.78554
     2019.30459        -7.59299         6.68297
     2019.30733        -4.89726         6.77689
     2019.31007        -4.95752         6.86957
     2019.31280        -8.80378         6.83867
     2019.31554         5.12696         6.90170
     2019.31828        -5.41830         6.65578
     2019.32102         0.12344         6.77689
     2019.32376        -8.54483         6.80407
     2019.32649        -5.91309         6.73611
     2019.32923        -5.78935         6.73363
     2019.33197        -6.36761         6.82137
     2019.33471        -3.81587         6.90664
     2019.33744        -4.24813         6.74723
     2019.34018        -7.58339         6.73611
     2019.34292        -0.87166         6.74476
     2019.34566        -6.44692         6.86215
     2019.34840        -5.24518         6.84362
     2019.35113        -6.28144         6.73116
     2019.35387        -6.89570         6.70645
     2019.35661        -4.72396         6.72375
     2019.35935        -4.76823         6.71015
     2019.36209        -2.61749         6.72622
     2019.36482        -4.44875         6.78183
     2019.36756        -7.03801         6.73981
     2019.37030         0.62873         6.85597
     2019.37304         0.56247         6.73487
     2019.37577         3.44321         6.90788
     2019.37851        -1.07006         6.79419
     2019.38125         5.83368         6.73734
     2019.38399        -1.02758         6.74228
     2019.38673        -4.74984         6.74723
     2019.38946         2.91990         6.71880
     2019.39220         1.11164         6.81643
     2019.39494        -7.24263         6.79542
     2019.39768       -16.99989         7.02774
     2019.40042         0.43785         6.82137
     2019.40315         4.40559         6.73858
     2019.40589        -2.13467         6.78924
     2019.40863        -7.16393         6.81767
     2019.41137        -7.69119         6.83744
     2019.41410         0.40754         6.84732
     2019.41684        -7.61472         6.80036
     2019.41958         0.05702         6.85350
     2019.42232        -1.42824         6.85845
     2019.42506        -3.46450         6.82014
     2019.42779         3.43024         7.22670
     2019.43053         2.53197         6.80778
     2019.43327        -8.06929         6.78924
     2019.43601        -8.41955         6.80778
     2019.43875       -10.57581         6.90293
     2019.44148       -11.44107         6.92888
     2019.44422        -5.99233         6.89428
     2019.44696        -7.91160         7.06729
     2019.44970        -1.06386         6.96843
     2019.45243        -2.44812         6.89305
     2019.45517        -8.31938         6.87451
     2019.45791        -7.85164         6.99314
     2019.46065        -7.83390         6.93630
     2019.46339        -5.38916         7.23164
     2019.46612         2.96157         7.27489
     2019.46886         0.08931         6.99561
     2019.47160        -3.22795         6.91282
     2019.47434        -1.25421         6.94248
     2019.47707         2.56852         7.04752
