# ================= DQRFIT RESULTS ================
# INPUT FILE: series/WCM1.rad
# OUTPUT: LDETRENDED
# FILTER FUNCTION: f(t)
# f(t)=+line(t)
# line(t)=+P 1+P 2*t
# heav(t)=(t<0?0:1)
# TOTAL OBSERVATIONS MTOT=   58
# INITIAL TIME INTERVAL= 2005.2532 - 2004.6516 =  0.6016
# TOTAL OBSERVATIONS AFTER PREFILTER M=   50
# TIME-SPAN= 2005.2513 - 2004.6543 =  0.5969
# OBSERVATIONS: USED M=    50 REJECTED MTOT-M=     8 %USED=   86.2069
# N=  2 PARAMETERS
# MAXSIG= 175.00000
# MAXRES=  10.02997
# SCALE FACTOR FOR LENGTHS: SCL=  10.00000
# SCALE FACTOR FOR SIGMAS: SCLSIG=   1.00000
# CHI^2=    172.070 DOF=    48 CHI^2/DOF=   3.58478
# RMS=     12.145 SDEV=     12.239 MEAN=   -0.83738
#  P #       PARAMETER +-    SIGMA %error PARAMETER NAME
# P 1 =    -19509.86279 +- ********  74.46 YZERO                              
# P 2 =        -1.45616 +-    7.245 497.57 SLOPE                              
#       T            LDETRENDED       SIG_OBS
     2004.65434         6.50411        10.98144
     2004.65708         2.58910        11.22947
     2004.65982         2.81209        11.23704
     2004.66256         3.59907        11.09694
     2004.66529        -1.10794        10.93979
     2004.66803       -35.85395        12.51127
     2004.67077         5.64203        10.95872
     2004.67351         8.35902        11.04392
     2004.67624         8.33801        11.07043
     2004.67898         4.33599        11.09883
     2004.68172         3.01498        11.16131
     2004.68446        10.02997        10.85080
     2004.70089       -40.39511        13.37275
     2005.10889         3.64800        11.03256
     2005.11162        -0.72201        10.76749
     2005.11436         0.95298        10.71069
     2005.11710         7.41796        11.20107
     2005.11984         1.72395        10.92085
     2005.12258        -0.36506        10.69744
     2005.12531        -5.36908        10.82997
     2005.12805        -4.02709        10.89624
     2005.13079         0.81890        10.86973
     2005.13353         2.69788        10.88488
     2005.13627         2.68687        10.79779
     2005.13902         0.83488        11.13102
     2005.14174        -4.87216        10.85837
     2005.14448        -1.23317        10.78264
     2005.14722         0.60482        10.99469
     2005.14995         5.48280        11.07800
     2005.15269         4.91279        11.01363
     2005.15543         6.01478        11.06096
     2005.15817         8.62977        11.13102
     2005.16091       -10.56625        12.29353
     2005.16638       -41.91727        12.45258
     2005.16912         4.63771        11.08747
     2005.17186         0.57770        11.15184
     2005.17460         2.50669        11.37526
     2005.17733        -0.88633        11.07043
     2005.17998         1.88252        12.02847
     2005.20471        -6.03346        12.05687
     2005.20745         7.97753        11.02310
     2005.21019         3.91451        11.10072
     2005.21292       -12.51050        12.34276
     2005.21840       -35.90753        12.51127
     2005.22114         7.49746        11.07800
     2005.22388         7.87345        11.11587
     2005.22661         9.51643        11.03824
     2005.22935         8.39542        10.99659
     2005.24578         4.42734        11.37905
     2005.25125        -0.95969        11.38662
