# ================= DQRFIT RESULTS ================
# INPUT FILE: series/WEEZ.rad
# OUTPUT: LDETRENDED
# FILTER FUNCTION: f(t)
# f(t)=+line(t)
# line(t)=+P 1+P 2*t
# heav(t)=(t<0?0:1)
# TOTAL OBSERVATIONS MTOT=  629
# INITIAL TIME INTERVAL= 2010.5925 - 2008.7803 =  1.8122
# TOTAL OBSERVATIONS AFTER PREFILTER M=  629
# TIME-SPAN= 2010.5925 - 2008.7803 =  1.8122
# OBSERVATIONS: USED M=   629 REJECTED MTOT-M=     0 %USED=  100.0000
# N=  2 PARAMETERS
# MAXSIG= 175.00000
# MAXRES=  20.00549
# SCALE FACTOR FOR LENGTHS: SCL=  10.00000
# SCALE FACTOR FOR SIGMAS: SCLSIG=   1.00000
# CHI^2=    706.399 DOF=   627 CHI^2/DOF=   1.12663
# RMS=      5.974 SDEV=      5.979 MEAN=    0.01894
#  P #       PARAMETER +-    SIGMA %error PARAMETER NAME
# P 1 =      6145.93147 +-  926.434  15.07 YZERO                              
# P 2 =        -3.04944 +-    0.461  15.12 SLOPE                              
#       T            LDETRENDED       SIG_OBS
     2008.78028         7.34871         5.77418
     2008.78302         2.10806         5.76993
     2008.78576         5.67740         5.97373
     2008.78850         4.20375         5.85485
     2008.79123        -1.02490         5.95674
     2008.79397         9.95445         5.98752
     2008.79671         5.22080         5.90367
     2008.79945         2.05615         5.90049
     2008.80219        12.69850         5.82194
     2008.80492        -2.22715         5.87607
     2008.80766         6.05020         5.80602
     2008.81040        13.97855         5.86758
     2008.81314         4.14889         5.98965
     2008.81587         9.27124         5.78904
     2008.81861         1.82359         5.78267
     2008.82135         2.10994         5.79328
     2008.82409         5.59129         5.83149
     2008.82683         5.90464         5.82937
     2008.82956         3.00099         5.83362
     2008.83230        -0.06566         5.79010
     2008.83504         7.12969         5.80708
     2008.83778         8.40105         6.30701
     2008.84052         4.32538         5.86334
     2008.84325         9.77673         5.74764
     2008.84599        11.29308         5.74976
     2008.84873         3.30843         5.80284
     2008.85147        -1.23422         5.83468
     2008.85420         4.06513         6.05333
     2008.85694         9.14848         5.82831
     2008.85968         7.90483         5.79328
     2008.86242         5.89117         5.79753
     2008.86516         5.39252         5.92172
     2008.86789         3.85987         5.91747
     2008.87063         6.44622         6.00026
     2008.87337         0.41457         5.84635
     2008.87606         8.27477         5.93339
     2008.87914        -3.72782         6.68064
     2008.88438        -3.47786         5.93658
     2008.88706        -4.29069         5.97373
     2008.88980         4.33266         5.91322
     2008.89253         7.96801         5.81133
     2008.95551         1.30004         5.75295
     2008.95824        -3.83161         5.97691
     2008.96098        -0.59926         5.85697
     2008.96372         4.61008         5.80284
     2008.96646         4.35443         5.91216
     2008.96919        -0.34222         6.22210
     2008.97193         5.50113         5.82937
     2008.97467         0.29348         5.77948
     2008.97741        -0.26017         5.81345
     2008.98015         6.91118         5.79647
     2008.98288         8.28853         5.81027
     2008.98538         1.45015         6.63924
     2008.98931       -20.15288        10.49754
     2008.99110        -6.84243         5.80496
     2008.99384        -4.92308         5.84635
     2008.99657        -4.10873         5.77418
     2008.99931        -0.46538         5.78904
     2009.00479        -0.78368         5.79965
     2009.00752         2.74267         5.78161
     2009.01026        -2.11198         5.78904
     2009.01300         0.57536         5.84211
     2009.01574         1.49771         5.83362
     2009.01848         2.89106         5.78585
     2009.02121        -3.25359         6.04590
     2009.02395        -9.39324         5.92808
     2009.02675       -12.92872         5.89200
     2009.02943       -18.12254         5.81770
     2009.03216       -19.87119         5.81345
     2009.03490       -17.44284         5.76569
     2009.03770        -9.44632         5.90473
     2009.04038        -6.56815         5.74340
     2009.04312       -11.54180         5.76462
     2009.04585        -8.75945         5.81770
     2009.04859       -12.47010         5.77418
     2009.05133       -11.77575         5.79541
     2009.05407        -8.91640         5.80708
     2009.05681        -8.08705         5.74446
     2009.05960        -9.30853         5.94613
     2009.06228       -10.21636         5.79859
     2009.06502        -8.54101         5.79010
     2009.06776        -8.14466         5.79434
     2009.07049        -6.31831         5.78691
     2009.07323        -2.46296         5.78267
     2009.07597        -6.31861         5.79434
     2009.07871        -7.17226         5.76675
     2009.08145        -6.74291         5.76038
     2009.08418        -3.38256         6.14143
     2009.08692        -3.88422         5.98540
     2009.08966        -0.35087         5.79328
     2009.09240        -5.50352         5.80284
     2009.09514        -1.74217         5.75401
     2009.09787        -3.18282         5.77312
     2009.10061        -1.30047         5.79647
     2009.10335        -4.06612         5.76675
     2009.10609         1.45623         5.76887
     2009.10862        -3.06805         6.45031
     2009.11537         6.89354        12.18203
     2009.11704         0.76962         5.90261
     2009.11978         3.16197         5.76887
     2009.12251         0.20932         5.90686
     2009.12525        -1.84833         5.87289
     2009.12799        -3.97498         5.78373
     2009.13073         2.55337         5.84848
     2009.13347        -3.10128         5.77418
     2009.13620        -6.87293         5.81027
     2009.13886        -7.79685         5.96099
     2009.14168        -4.60924         5.85060
     2009.14442        -2.86689         5.78691
     2009.14715        -5.97154         6.00875
     2009.14989        -3.91119         6.03317
     2009.15263        -5.82284         6.01724
     2009.15537        -3.11349         5.92490
     2009.15811        -3.90914         5.89730
     2009.16084        -1.36579         5.99708
     2009.16358        10.88155        66.68750
     2009.16632        -2.90510         6.10110
     2009.16906         0.49425         6.02892
     2009.17180         3.07360         5.77418
     2009.17453         0.04795         5.77524
     2009.17727         3.47530         6.13188
     2009.18001        -4.57535         5.83149
     2009.18280         1.51217         5.90898
     2009.18548        -2.55465         5.85485
     2009.18822        -4.12131         5.79328
     2009.19096        -3.35696         5.77524
     2009.19370        -3.55961         5.83468
     2009.19644        -1.62526         5.78479
     2009.19917         1.39609         5.82406
     2009.20175        -6.88905         6.13931
     2009.20472        -6.30101         5.93339
     2009.20739        -0.98286         5.81345
     2009.21013        -8.53651         5.75932
     2009.21286        -2.32817         5.75826
     2009.21560        -2.39382         5.80496
     2009.21834        -4.06547         5.77630
     2009.22108         0.11388         5.86334
     2009.22381        -7.25077         5.78055
     2009.22655        -5.92642         5.75826
     2009.22929        -3.68007         5.81982
     2009.23203        -5.09572         5.81027
     2009.23477        -2.79437         6.87700
     2009.23750         0.82697         5.82194
     2009.24024         2.09232         5.83043
     2009.24298         1.39667         5.78161
     2009.24572        -4.46998         5.91004
     2009.24846        -0.68763         5.83468
     2009.25119        -8.16328         6.02680
     2009.25393        -5.52393         5.98965
     2009.25667        -1.95358         5.80920
     2009.25941        -4.05323         5.82619
     2009.26214        -1.04589         5.86652
     2009.26488         0.09346         5.84848
     2009.26762         3.35181         5.85166
     2009.27036         2.44516         5.86228
     2009.27310        -1.08649         5.82088
     2009.27583        -3.47614         5.88350
     2009.27857        -7.73279         5.88350
     2009.28131       -12.15844         5.96311
     2009.28405        -6.39209         5.90049
     2009.28679        -3.21274         5.94507
     2009.28952        -2.61040         5.88244
     2009.29226        -1.44505         5.95568
     2009.29500        -6.84570         5.84954
     2009.29774        -7.41435         5.89624
     2009.30047        -6.94200         5.89093
     2009.30321        -4.42565         5.88138
     2009.30595         4.77070         6.02574
     2009.30869         7.26905         5.92490
     2009.31143        -3.82060         5.86971
     2009.31410        -4.07244         6.02149
     2009.31726        -5.12681         7.14767
     2009.31964         0.26444         5.89624
     2009.32238        -0.77521         5.89200
     2009.32512        -6.25086         5.94188
     2009.32785        -6.84851         5.88350
     2009.33059        -4.87216         5.76993
     2009.33333        -3.18081         5.81557
     2009.33607        -5.29746         5.90261
     2009.33880         4.36688         5.79434
     2009.34154        -7.39677         5.87077
     2009.34428        -3.44842         5.81451
     2009.34702        -7.70707         5.77948
     2009.34976        -7.54272         5.73915
     2009.35249        -5.02637         5.77312
     2009.35523        -1.90102         5.81345
     2009.35797        -3.29667         5.80177
     2009.36071        -5.24132         5.96842
     2009.36344        -2.65098         5.81027
     2009.36618        -6.06663         5.79541
     2009.36892        -1.08128         5.80496
     2009.37166        -4.82593         5.84848
     2009.37440        -3.83058         5.77736
     2009.37713        -1.68823         5.86440
     2009.37987        -2.44288         5.92490
     2009.38261        -3.25953         5.78373
     2009.38535        -3.95918         5.77842
     2009.38809        -5.07184         5.83043
     2009.39082       -10.57349         5.81027
     2009.39356        -3.63914         5.80496
     2009.39630        -5.92379         5.81451
     2009.39904        -3.82344         5.84848
     2009.40177         1.13891         5.77736
     2009.40451         1.46026         5.79434
     2009.40725         1.57461         5.78161
     2009.40999        -1.21604         5.80602
     2009.41273        -4.97970         5.86121
     2009.41546        -0.79035         5.96523
     2009.41820        -3.32700         5.84105
     2009.42094        -1.57665         5.90261
     2009.42368        -3.32430         5.84954
     2009.42642        -2.60795         5.81133
     2009.42915         2.74940         5.95037
     2009.43189        -1.71025         5.78585
     2009.43463         0.51910         5.78691
     2009.43737         1.98945         5.81876
     2009.44010        -8.14021         5.80708
     2009.44284        -6.87286         5.82831
     2009.44558        -2.49951         5.81557
     2009.44832        -4.17416         5.80814
     2009.45106        -1.68781         5.83149
     2009.45379        -3.57146         5.77418
     2009.45653        -0.22311         5.80284
     2009.45927        -1.85476         5.84529
     2009.46201         5.15059         5.85909
     2009.46475         3.28493         6.05333
     2009.46748        -0.26172         5.97373
     2009.47022        -4.25337         5.83680
     2009.47296        -3.80202         5.81770
     2009.47570         3.06533         5.83892
     2009.47843         2.87068         5.97797
     2009.48117         0.01303         6.42589
     2009.48391         0.58238         5.84211
     2009.48665        -3.39527         5.90792
     2009.48939         0.49807         5.93870
     2009.49212         4.22042         5.91322
     2009.49486         3.29877         5.87289
     2009.49760         4.20612         6.21998
     2009.50034         4.62347         5.95993
     2009.50308         0.17582         5.84317
     2009.50581         1.19117         5.82831
     2009.50855         0.82752         5.89624
     2009.51129        -0.01013         6.17434
     2009.51403         5.62121         5.82088
     2009.51676         1.90556         5.81345
     2009.51950         1.25591         5.78798
     2009.52224         0.75326         5.83786
     2009.52498        -4.86639         5.85272
     2009.52772         4.20496         5.89943
     2009.53045         1.24831         5.87820
     2009.53319         0.53666         5.80602
     2009.53593         0.18001         5.79010
     2009.53867         2.20435         5.83786
     2009.54141         2.02270         5.79647
     2009.54414         5.31205         5.88563
     2009.54688         5.54240         5.83786
     2009.54962         3.08275         5.80177
     2009.55236         5.06510         5.81133
     2009.55509         8.81845         5.79859
     2009.55783         9.56180         5.80496
     2009.56057         4.15115         6.13188
     2009.56331        20.00549         6.26137
     2009.56605        10.25584         6.18601
     2009.56878         6.00819         5.86228
     2009.57152         8.39454         5.85697
     2009.57426         4.43689         5.88350
     2009.57700        10.73424         5.95780
     2009.57974         6.43059         5.83680
     2009.58247         7.61994         5.85060
     2009.58521         6.46329         5.98540
     2009.58795         5.92963         5.89730
     2009.59069         7.02198         5.98116
     2009.59890        12.44303         5.83786
     2009.60164         4.39038         5.92278
     2009.60438         6.55973         5.87820
     2009.60711         2.89908         5.85060
     2009.60985         6.50343         5.87501
     2009.61259         6.28278         5.86546
     2009.61533         1.69312         5.89093
     2009.61807         4.10947         5.85060
     2009.62080         8.43482         5.86228
     2009.62354         4.76017         5.85272
     2009.62628        10.36652         5.85591
     2009.62902        13.82087         6.03741
     2009.63175         9.86222         5.88987
     2009.63449         8.40557         6.05015
     2009.63723         7.78892         6.02892
     2009.63997         6.32226         5.91853
     2009.64271         5.26861         5.91110
     2009.64544         9.08296         5.89943
     2009.64818        11.79031         6.21149
     2009.65092         6.97266         5.96417
     2009.65366         4.48601         5.95674
     2009.65639         5.05936         5.75826
     2009.65913         7.70271         5.77418
     2009.66187        10.93106         5.79116
     2009.66461         9.69840         5.86440
     2009.66735        11.45475         5.95568
     2009.67008         6.67210         5.92915
     2009.67282         5.26145         6.24545
     2009.67556         5.76880         5.98328
     2009.67830         9.47215         6.11914
     2009.68104         2.92550         5.99814
     2009.68377         2.67485         5.86334
     2009.68651        12.76520         5.84742
     2009.68925        12.16154         6.04484
     2009.69199         6.98689         5.83999
     2009.69472         8.17824         6.01406
     2009.69746        12.74759         5.88032
     2009.70020        11.17094         5.88032
     2009.70294        11.30829         5.87183
     2009.70568         8.56164         5.91535
     2009.70841        10.79599         5.87501
     2009.71115         5.57734         5.95780
     2009.71389         1.09568         6.16372
     2009.71663         6.77703         6.07350
     2009.71937         8.68638         5.95250
     2009.72210         2.62073         5.81982
     2009.72484         6.32208         5.88350
     2009.72758         1.47843         5.89943
     2009.73032         3.73578         5.91641
     2009.73305         6.87013         5.92702
     2009.73579         9.31348         6.02361
     2009.73853        11.29882         5.83999
     2009.74127        11.01617         5.98859
     2009.74401        14.27852         6.09791
     2009.74674         8.88387         5.89836
     2009.74948         8.89722         5.83362
     2009.75222         2.44757         5.85485
     2009.75496         8.47192         5.83892
     2009.75770         7.51427         5.84742
     2009.76043        11.08662         5.84211
     2009.76317        10.92697         5.85485
     2009.76591         6.62731         5.87183
     2009.76865         6.63666         5.95887
     2009.77138         4.99401         5.85909
     2009.77412         8.22436         5.89943
     2009.77686         9.29671         5.84954
     2009.77960        11.67406         5.87183
     2009.78234        14.42741         5.95568
     2009.78507        13.06476         5.95250
     2009.78781        12.01111         6.12551
     2009.79055        -1.70255         6.44606
     2009.79329        -9.81120         6.08305
     2009.79603         4.27715         6.03635
     2009.79876         5.98950         6.05227
     2009.80150         1.17885         5.99814
     2009.80424         2.66320         6.01724
     2009.80698         2.66855         6.06289
     2009.80971         6.67290         6.11171
     2009.81245         8.22725         6.34947
     2009.81519         9.34759         6.04484
     2009.81793         3.83494         6.06395
     2009.82067         7.81629         5.94188
     2009.82340         4.27464         5.94825
     2009.82614         0.06099         6.00238
     2009.82888        -0.62766         6.19981
     2009.83162         5.76969         6.16478
     2009.83436        -2.07796         5.90898
     2009.83709         2.62539         6.14992
     2009.83983        -1.84127         5.94825
     2009.84257         5.89708         6.06925
     2009.84531         2.23543         6.12976
     2009.84804        11.97478         6.27942
     2009.85078        10.20113         6.06713
     2009.85352        12.24248         5.97266
     2009.85626        -0.68617         6.03423
     2009.85900        -6.27182         6.13082
     2009.86173        -3.81047         5.97160
     2009.86447         7.16487         6.26562
     2009.86722         8.51125         6.15311
     2009.86995         1.08857         6.02998
     2009.87269         2.44892         6.04378
     2009.87542        -3.25473         6.00875
     2009.87816         2.15162         6.07987
     2009.88090         6.67497         6.18707
     2009.88364        -0.16668         6.04803
     2009.88615        -2.96303         6.61801
     2009.88911         9.50901         5.94507
     2009.89185        -1.17964         5.98965
     2009.89459        -0.80929         5.94401
     2009.89733        -8.29194         5.97479
     2009.90006        -5.77959         6.00026
     2009.90280        -6.23324         5.87926
     2009.90554        -0.26189         5.93233
     2009.90828        -3.10454         5.89943
     2009.91102        -6.58119         5.87607
     2009.91375        -7.30684         5.90155
     2009.91649        -6.60950         5.84211
     2009.91923       -10.66815         5.89624
     2009.92197        -8.47580         5.85166
     2009.92470        -8.88245         5.80708
     2009.92744        -8.01510         5.86228
     2009.93018        -9.01075         5.84954
     2009.93292        -6.90840         5.86121
     2009.93566        -4.36805         5.86440
     2009.93839        -0.56670         6.14780
     2009.94113        -0.67836         5.78798
     2009.94387        -4.37601         5.93127
     2009.94661         1.26634         5.95250
     2009.94935        -1.56431         5.85272
     2009.95208        -7.93996         5.83468
     2009.95482        -9.79961         5.91216
     2009.95756       -11.67626         5.90473
     2009.96030        -7.72691         5.90367
     2009.96303        -6.81056         5.86440
     2009.96577        -9.21722         5.96523
     2009.96851       -10.85587         5.97266
     2009.97125        -4.45252         5.98859
     2009.97399        -5.60817         5.91641
     2009.97672        -6.29782         5.79434
     2009.97946       -11.22447         5.79753
     2009.98220       -11.82212         5.80071
     2009.98494        -4.84577         5.76781
     2009.98767        -3.58542         5.77418
     2009.99041        -3.48408         5.78161
     2009.99315        -5.48873         5.78479
     2009.99589        -4.27238         5.79859
     2009.99863        -9.34103         5.88032
     2010.00410        -8.03033         5.78904
     2010.00684       -13.07598         5.77205
     2010.00958        -7.97263         5.80071
     2010.01232       -15.37728         5.83574
     2010.01505        -9.99194         5.82513
     2010.01779        -7.39659         5.83574
     2010.02053         1.03376         5.90898
     2010.02327       -10.68889         5.87501
     2010.02600        -2.16554         5.80602
     2010.02874        -9.56819         5.80071
     2010.03148        -3.37784         5.85166
     2010.03422        -9.05949         5.93233
     2010.03696       -11.05414         6.11596
     2010.03969       -13.50480         6.09367
     2010.04243        -3.37245         5.88987
     2010.04517         2.76190         5.85909
     2010.04791         8.33525         5.80708
     2010.05065        -0.01840         5.96736
     2010.05338         0.29095         6.00981
     2010.05612         5.09430         5.86440
     2010.05886         5.17465         5.77948
     2010.06160        -3.87600         5.82406
     2010.06433        -4.98466         5.79328
     2010.06707       -13.18631         5.81876
     2010.06981        -5.05996         5.90367
     2010.07255        -6.68961         5.96948
     2010.07529        -7.50526         5.97691
     2010.07802        -0.80491         5.87395
     2010.08076        -9.13756         5.79328
     2010.08361        -5.54386         9.70571
     2010.08624         2.98914         5.75932
     2010.08898         4.58749         5.94719
     2010.09171         2.24983         5.78585
     2010.09445         4.23918         5.98328
     2010.09719         3.13453         5.97160
     2010.09993        -1.10412         5.75719
     2010.10266         0.14123         5.78267
     2010.10540        -2.72642         5.89200
     2010.10814         0.53293         5.90155
     2010.11088        -0.65872         5.91959
     2010.11276        -7.03098        10.40201
     2010.11538         2.18602        11.80204
     2010.12183        -6.95433         5.89093
     2010.12457        -1.89398         5.83149
     2010.12731         0.32837         6.02361
     2010.13004        -6.01828         5.87077
     2010.13278        -5.25993         5.84954
     2010.13552        -2.56858         5.84635
     2010.13826        -2.23223         5.81027
     2010.14099        -0.34089         5.76781
     2010.14373        -2.33754         5.97054
     2010.14647         0.11881         5.98540
     2010.14921        -1.07084         5.90792
     2010.15189        -3.83866         5.84954
     2010.15742        -3.31879         5.87395
     2010.16016         0.44856         5.79965
     2010.16290         3.36391         5.77205
     2010.16564        -2.08675         5.79753
     2010.16837        -3.46540         5.83574
     2010.17111        -0.73205         5.79116
     2010.17385        -2.86070         5.97160
     2010.17659         1.39465         5.75295
     2010.17932         1.68300         5.75932
     2010.18206         1.13235         5.85803
     2010.18480         4.51370         5.84317
     2010.18754         3.97705         5.77524
     2010.19028         4.03339         5.77842
     2010.19301         0.63174         5.84423
     2010.19575         3.30309         5.78055
     2010.19849        -1.21956         5.90155
     2010.20123        -4.79421         5.84317
     2010.20397        -0.62886         5.94082
     2010.20670        -3.60751         5.94401
     2010.20944        -2.48816         5.78373
     2010.21218        -6.90181         5.78691
     2010.21492        -4.33547         5.79328
     2010.21765        -3.73612         5.93870
     2010.22039         0.16723         5.84211
     2010.22313        -5.21742         5.75932
     2010.22587        -0.28107         5.86864
     2010.22861        -1.63172         5.89200
     2010.23134        -1.31737         5.92065
     2010.23408        -4.32002         5.86758
     2010.23956        -1.40732         6.01300
     2010.24230         2.95902         6.13506
     2010.24503         0.56337         6.04060
     2010.24777         2.66972         5.93870
     2010.25051         5.76407         6.11596
     2010.25325         2.25342         5.87926
     2010.25598         1.97977         5.89730
     2010.25872         3.45912         5.91535
     2010.26146         5.58347         6.02786
     2010.26420         3.16182         6.09897
     2010.26694         2.97116         5.92172
     2010.26967         3.96751         5.96523
     2010.27241         0.56786         5.97903
     2010.27515         0.09721         5.89624
     2010.27789         3.79356         5.95993
     2010.28062         0.24691         5.84211
     2010.28336        -4.34974         5.98434
     2010.28610        -2.50439         5.98116
     2010.28884        -5.41404         5.80071
     2010.29158         0.53530         5.97160
     2010.29431         0.40665         5.92808
     2010.29705         3.15200         5.86440
     2010.29979         2.05735         5.91535
     2010.30253         3.84270         5.98646
     2010.30527         6.31405         6.01831
     2010.30800         6.49240         5.85166
     2010.31074         5.30075         5.86228
     2010.31348        -1.50090         5.81133
     2010.31622         5.45044         5.80284
     2010.31895         5.21079         6.03210
     2010.32169         7.31314         5.93021
     2010.32443         5.76449         5.91004
     2010.32717         2.48784         5.79116
     2010.32991        -2.89781         5.81451
     2010.33264         1.83654         5.75083
     2010.33538         2.28789         6.18601
     2010.33812         0.30324         5.86864
     2010.34086        -1.46942         5.82300
     2010.34360        -1.36607         5.75189
     2010.34633        -1.95572         5.82194
     2010.34907         1.57063         5.77630
     2010.35181        -0.94802         5.80496
     2010.35449         2.91316         5.96948
     2010.35723        -1.42450         5.90155
     2010.36002        -0.84797         6.07775
     2010.36276         4.84038         5.78267
     2010.36550        -4.97828         6.09579
     2010.36824        -0.94193         6.03104
     2010.37097         4.42642         5.83786
     2010.37371         6.53877         5.77099
     2010.37645         2.66712         5.76993
     2010.37919         4.58947         6.06819
     2010.38193         0.01682         6.10534
     2010.38392        -5.16009         9.63566
     2010.38740         8.78952         5.81451
     2010.38985        -0.85100         6.58829
     2010.39288        -1.79879         5.84848
     2010.39561        -7.46944         5.85378
     2010.39778       -11.80483         7.77709
     2010.40109        -1.79474         5.72217
     2010.40383        -5.69039         5.70306
     2010.40657        -3.29304         5.71261
     2010.40930        -3.21769         5.83574
     2010.41204        -9.25234         5.84529
     2010.41478         1.40401         5.76887
     2010.41752         2.30335         5.76356
     2010.42026         1.74170         5.79328
     2010.42299         6.13605         5.74658
     2010.42573        -8.98460         5.80496
     2010.42847        -8.46925         5.78161
     2010.43121        -4.70490         5.67865
     2010.43394        -2.42755         5.67440
     2010.43668        -6.31120         5.88669
     2010.43942         1.04615         5.73278
     2010.44216        -8.84351         5.74233
     2010.44490        -7.59816         5.66167
     2010.44763        -0.66381         5.78585
     2010.45037         0.46854         5.73915
     2010.45311        -3.27711         5.76781
     2010.45585        -5.37376         5.81770
     2010.45859        -4.32741         5.78691
     2010.46132        -4.64506         5.78691
     2010.46406        -1.41971         5.74658
     2010.46680        -5.56237         5.76781
     2010.46954        -4.73902         5.85166
     2010.47227        -6.04067         5.72004
     2010.47501         4.60268         5.75507
     2010.47775         1.12303         5.90367
     2010.48049        -1.96062         5.88669
     2010.48323        -4.33727         5.79859
     2010.49418        -0.63288         5.70625
     2010.49692        -1.30353         5.75083
     2010.49965        -0.27718         5.67971
     2010.50239         2.13217         5.70306
     2010.50405        -4.21276        14.65516
     2010.50787         0.96087         5.70518
     2010.51060        -1.28378         5.71792
     2010.51334         2.48257         5.69139
     2010.51608        -1.57009         5.73490
     2010.51882        -2.39374         5.69245
     2010.52156        10.75761         5.88669
     2010.52429         9.92696         5.82513
     2010.52703         2.77631         5.87501
     2010.52977         1.76266         5.71368
     2010.53251        -0.85699         5.68289
     2010.53507         2.52984         6.14886
     2010.53798         1.26171         5.74764
     2010.54072        -2.66895         5.74127
     2010.54323         2.73371         6.32400
     2010.54620         0.87375         5.72854
     2010.54893        -1.63490         5.75083
     2010.55167        -0.11755         5.85697
     2010.55384         4.60006         7.80894
     2010.55686         2.16628         6.48003
     2010.55989         4.02350         5.77205
     2010.56262         3.33385         5.75613
     2010.56536         3.57620         5.68926
     2010.56759        -9.59302         7.53721
     2010.57084         3.31589         5.74552
     2010.57357         2.39024         5.89943
     2010.57631         0.36159         5.91853
     2010.57905        -2.68706         5.76993
     2010.58179         2.17129         5.78161
     2010.58453        -1.68636         5.77418
     2010.58726         2.46399         5.87077
     2010.59000        -1.59666         6.00132
     2010.59248         7.88790         6.46941
