# ================= DQRFIT RESULTS ================
# INPUT FILE: series/WHD5.rad
# OUTPUT: LDETRENDED
# FILTER FUNCTION: f(t)
# f(t)=+line(t)+annual(t)
# line(t)=+P 1+P 2*t
# annual(t)=+P 3*sin(2*pi*t+P 4)
# heav(t)=(t<0?0:1)
# TOTAL OBSERVATIONS MTOT= 3791
# INITIAL TIME INTERVAL= 2019.6712 - 2008.2912 = 11.3800
# TOTAL OBSERVATIONS AFTER PREFILTER M= 3772
# TIME-SPAN= 2019.6712 - 2008.2912 = 11.3800
# OBSERVATIONS: USED M=  3772 REJECTED MTOT-M=    19 %USED=   99.4988
# N=  4 PARAMETERS
# MAXSIG= 175.00000
# MAXRES=  36.12486
# SCALE FACTOR FOR LENGTHS: SCL=  10.00000
# SCALE FACTOR FOR SIGMAS: SCLSIG=   1.00000
# CHI^2=   2584.334 DOF=  3768 CHI^2/DOF=   0.68586
# RMS=      4.863 SDEV=      4.864 MEAN=    0.03577
#  P #       PARAMETER +-    SIGMA %error PARAMETER NAME
# P 1 =      1550.93310 +-   46.344   2.99 YZERO                              
# P 2 =        -0.76900 +-    0.023   2.99 SLOPE                              
# P 3 =         5.26159 +-    0.107   2.03 ANNUAL AMPLITUDE                   
# P 4 =        -2.73056 +-    0.026   0.97 ANNUAL PHASE                       
#       T            LDETRENDED       SIG_OBS
     2008.29118         8.05029         9.24236
     2008.29295         9.59265         4.57232
     2008.29568        10.48375         4.65265
     2008.29842         7.92386         4.69986
     2008.30116         2.77796         4.62201
     2008.30390         5.60907         4.67004
     2008.30663         6.03517         4.63112
     2008.30937         3.94128         4.68164
     2008.31211         3.64838         4.70980
     2008.31485         5.73249         4.63443
     2008.31759         0.22259         4.64686
     2008.32032         1.44570         4.71891
     2008.32306         5.40780         4.72470
     2008.32580         2.56491         4.76611
     2008.32854         5.13802         4.60876
     2008.33128         2.58812         4.64106
     2008.33401         6.22123         4.80918
     2008.33675         7.83133         4.64768
     2008.33949         9.76644         4.59965
     2008.34223         5.56354         4.67584
     2008.34496         1.16865         4.54830
     2008.34770         7.79075         4.56404
     2008.35044         4.95586         4.61953
     2008.35318         5.77196         4.54085
     2008.35592         0.81807         4.64354
     2008.35865         9.19218         4.57066
     2008.36101         4.96398         5.33672
     2008.36418         6.35542         5.67875
     2008.36687        -7.60451         4.67419
     2008.36915       -10.54875         5.58683
     2008.37234        -6.88630         5.06922
     2008.37508        -3.70319         4.53091
     2008.37782        -0.81609         4.55990
     2008.38056         2.28202         4.55824
     2008.38329         3.37212         4.59220
     2008.38603         1.22923         4.54582
     2008.38877         1.11233         4.56570
     2008.39151        -3.69456         4.64934
     2008.39425        -1.79745         4.50193
     2008.39698         0.63065         4.56570
     2008.39972         1.28476         4.56073
     2008.40246         2.05886         4.54830
     2008.40520         0.33097         4.52760
     2008.41067         3.27718         4.50193
     2008.41341        -2.99172         4.54665
     2008.41615         3.17439         4.49116
     2008.41889        -2.27151         4.51352
     2008.42115       -11.84477         5.72016
     2008.42547        13.98056        10.44901
     2008.42710         1.65881         4.54913
     2008.42984         2.82392         4.61290
     2008.43258         1.68002         4.68330
     2008.43531        -2.32787         4.59882
     2008.43805        -1.05077         4.59468
     2008.44079        -5.20966         4.89613
     2008.44900        -8.30335         4.53919
     2008.45174        -4.64824         4.64520
     2008.45448        -1.32814         4.64189
     2008.45722         0.84697         4.55990
     2008.45995        -2.46593         4.55990
     2008.46817        -4.41661         4.64271
     2008.47091        -4.78350         4.66922
     2008.47364        -5.01040         4.61373
     2008.47638         0.21071         4.54582
     2008.47912        -1.49219         4.51932
     2008.48186        -1.85008         4.57398
     2008.48459        -1.91898         4.67253
     2008.48733        -1.54087         4.53919
     2008.49007        -6.40277         4.56735
     2008.49281        -3.77666         4.61207
     2008.49555        -6.13556         4.59220
     2008.49828        -2.90445         4.66756
     2008.50102        -1.07134         4.84479
     2008.50376         0.70476         4.72470
     2008.50650        -3.31613         4.63775
     2008.50924        -4.48403         4.65845
     2008.51197        -6.03492         4.61207
     2008.51471         2.83918         4.54085
     2008.51745         2.04529         4.59054
     2008.52019         7.63739         4.54168
     2008.52292         2.17950         4.70151
     2008.52566         1.80660         4.72470
     2008.52840         4.48871         4.56155
     2008.53114         6.02781         4.58557
     2008.53388         4.65692         4.61042
     2008.53661         4.89803         4.62367
     2008.53935         1.35713         4.55576
     2008.54209         1.24924         4.62284
     2008.54483         2.61534         4.68164
     2008.54757         4.06545         4.64686
     2008.55030         7.10255         4.57729
     2008.55304         7.38966         4.77771
     2008.55578         1.13676         4.68164
     2008.55852         6.61987         4.60048
     2008.56125         1.03697         5.69200
     2008.56283         3.06818        14.32649
     2008.57864         7.58034        10.10366
     2008.58044        10.25173         4.56984
     2008.58316         7.47682         4.67336
     2008.58590        10.20692         4.56238
     2008.58863         7.13503         4.66093
     2008.59080         5.95269         5.99677
     2008.59411         8.43324         4.49613
     2008.59685         5.87634         4.58888
     2008.59958         3.40745         4.78847
     2008.60232         3.34156         4.76280
     2008.60506         9.77366         4.72884
     2008.60780        10.75477         4.64768
     2008.61054        -3.14113         5.12719
     2008.61327         6.98898         4.64768
     2008.61601         7.92708         4.56155
     2008.61875         7.25619         4.60048
     2008.62149         6.41729         4.65431
     2008.62423         9.42640         4.60379
     2008.62696         8.35850         4.65017
     2008.62970        10.61461         4.72470
     2008.63244         9.74071         4.64934
     2008.63518        13.60182         4.73216
     2008.63791         6.08293         4.72636
     2008.64065         8.15703         4.62698
     2008.64339         7.84914         4.63857
     2008.64613        10.65024         4.80835
     2008.64887        11.11635         4.61124
     2008.65160        14.11345         4.63278
     2008.65434         0.80256         4.82077
     2008.65708         2.13966         4.94997
     2008.65982         9.03277         4.81000
     2008.66256         4.58987         4.80338
     2008.66529         9.14898         4.58391
     2008.66803         0.37908         4.64686
     2008.67077        -0.35681         4.71394
     2008.67351         4.46630         4.66425
     2008.67624         2.89040         5.01291
     2008.67898        13.14451         4.74955
     2008.68172         4.46461         4.66425
     2008.68446         8.37772         4.64934
     2008.68720         3.76282         4.70317
     2008.68993         7.42293         4.71228
     2008.69267         9.53003         4.69075
     2008.69541         9.09014         4.78764
     2008.69815         6.45924         4.83485
     2008.70089        12.87535         4.73381
     2008.70362         8.45745         4.68412
     2008.70636        11.68056         4.63526
     2008.70910         8.99367         4.72636
     2008.71184         7.17077         4.87791
     2008.71457         5.57288         4.67501
     2008.71731         3.03498         4.60876
     2008.72005         9.09609         4.66259
     2008.72279         9.13019         4.65928
     2008.72553         2.60830         4.65514
     2008.72826         8.67240         4.68330
     2008.73374         1.36261         4.78847
     2008.73648         7.85572         4.64520
     2008.73921        10.56382         4.69406
     2008.74469         9.31704         4.59799
     2008.74743         9.34214         4.60876
     2008.75017        13.47925         4.66508
     2008.75290         8.43635         4.58060
     2008.75564         7.72646         4.76446
     2008.75838         6.93556         4.69820
     2008.76112        14.90667         4.61124
     2008.76386         6.14177         4.64934
     2008.76659        15.72088         4.77522
     2008.76933         7.67398         4.74375
     2008.77207         5.32709         4.57149
     2008.77481         5.22519         4.54251
     2008.77754         5.13930         4.51600
     2008.78028        10.20041         4.62367
     2008.78273         5.64329         5.01788
     2008.78586         6.56270         4.76197
     2008.78850         3.99472         4.63443
     2008.79123         6.50983         4.67998
     2008.79397         2.99793         4.65265
     2008.79671         7.87604         4.61124
     2008.79945         4.47014         4.51932
     2008.80219         6.53525         4.91435
     2008.80492         4.28835         4.59054
     2008.80766         5.32446         4.60793
     2008.81040         9.35457         4.70814
     2008.81314        11.67267         4.71394
     2008.81587         7.80678         4.60628
     2008.81861         1.55788         4.62035
     2008.82135         1.99099         4.67336
     2008.82409         2.95709         4.75369
     2008.82683        12.16320         4.65348
     2008.82956         1.25830         4.62035
     2008.83230        -0.25259         4.65182
     2008.83504         0.70251         4.66093
     2008.83778         8.37962         4.71808
     2008.84052         3.29572         4.63443
     2008.84325        10.74683         4.58888
     2008.84599         5.04094         4.65182
     2008.84873         1.35904         4.59220
     2008.85420        -2.79375         4.80752
     2008.85694         7.97836         4.67833
     2008.85968         9.02446         4.68909
     2008.86242         3.22457         4.65017
     2008.86516         5.46267         4.69655
     2008.86789         1.53278         4.74955
     2008.87063        -1.22512         4.78433
     2008.87337        -2.11201         4.68992
     2008.87611        -1.26491         4.64603
     2008.87885         0.98220         4.54333
     2008.88158        -1.67269         4.68247
     2008.88432        -0.81959         4.64520
     2008.88706         0.74752         4.71228
     2008.88980        -8.35538         4.88951
     2008.89253         1.42973         4.69820
     2008.89527        -0.60517         4.65182
     2008.89801         2.84694         4.82243
     2008.90075        -7.06696         4.68826
     2008.90349        -3.18685         4.88454
     2008.90622        -5.27475         4.70483
     2008.90896         4.83636         4.65348
     2008.91170         0.83546         4.65348
     2008.91444         6.87757         4.67833
     2008.91718         4.58968         4.66425
     2008.91991        -2.15522         4.75783
     2008.92265         3.73589         4.69820
     2008.92539        -0.66201         4.65762
     2008.92813         0.51510         4.67667
     2008.93086        -6.83780         4.77108
     2008.93360        -7.14969         4.68661
     2008.93634        -3.83459         4.68412
     2008.93908        -2.16248         4.63857
     2008.94182        -3.29638         5.09241
     2008.94410        -2.02362         5.79387
     2008.94735        -4.49012         5.02533
     2008.94877        31.17398        15.23417
     2008.95585         0.32741        13.96044
     2008.95824        -5.89774         4.53340
     2008.96098        -3.48364         4.62946
     2008.96366         1.13942         4.70483
     2008.96646        -3.21643         4.77853
     2008.96919        -7.68732         4.59137
     2008.97193         6.01178         4.64686
     2008.97467         1.20289         4.79096
     2008.97741        -0.16601         4.55162
     2008.98015         2.64510         4.59882
     2008.98288         4.80720         4.65100
     2008.98562        -1.81969         4.57895
     2008.98836         3.31942         4.60131
     2008.99110        -1.76848         4.63443
     2008.99384         0.06263         4.70731
     2008.99657        -6.38327         4.60462
     2008.99931        -3.27716         4.71973
     2009.00205        -4.32106         4.64106
     2009.00479         0.79005         4.55327
     2009.00752         2.61815         4.54665
     2009.01026        -2.09974         4.65845
     2009.01300         7.74536         4.78847
     2009.01574        -1.16753         4.61787
     2009.01848         1.87258         4.68330
     2009.02121         3.53568         4.77771
     2009.02395       -12.84121         4.68495
     2009.02669       -10.40711         4.63112
     2009.02943       -11.43700         4.63443
     2009.03216       -14.18690         4.61042
     2009.03490        -9.97679         4.69489
     2009.03764        -9.62869         4.58888
     2009.04038       -10.99658         4.62367
     2009.04312       -11.39448         4.59799
     2009.04585       -18.09137         4.58143
     2009.04859       -10.18027         4.61456
     2009.05133        -8.69616         4.60213
     2009.05407        -8.26605         4.61621
     2009.05681        -9.32095         4.64851
     2009.05954        -5.94184         4.58640
     2009.06228       -13.13674         4.57398
     2009.06502       -11.35263         4.56570
     2009.06776        -9.82953         4.56984
     2009.07049       -11.51142         4.62532
     2009.07323        -4.99232         4.60876
     2009.07597       -11.29621         4.59965
     2009.07871        -7.75511         4.57398
     2009.08145        -7.36300         4.59882
     2009.08418        -7.62390         4.64520
     2009.08692        -8.26379         4.62284
     2009.08966        -8.10468         4.71642
     2009.09240        -7.16858         4.54416
     2009.09514        -0.97147         4.55659
     2009.09787        -5.13437         4.64768
     2009.10067        -0.85722         5.30939
     2009.10335        -7.58816         4.64520
     2009.10609        -0.29705         4.59468
     2009.10882        -2.29795         4.62118
     2009.11156        -2.96184         4.56818
     2009.11430        -3.44474         4.69323
     2009.11704         0.59637         4.71808
     2009.11978        -5.63653         4.60628
     2009.12251        -1.72642         4.56155
     2009.12525        -4.47131         4.56487
     2009.12799         1.12479         4.63775
     2009.13073        -1.58510         4.62035
     2009.13347        -6.17000         4.60048
     2009.13620       -11.25689         4.60545
     2009.13894        -5.33279         4.61124
     2009.14168        -9.12968         4.65431
     2009.14442        -3.01758         4.61787
     2009.14715        -3.55147         4.76114
     2009.14989        -4.90537         4.76446
     2009.15263        -5.97126         4.62615
     2009.15537        -6.70316         4.70151
     2009.15811        -6.07705         4.67998
     2009.16084        -6.96894         4.59054
     2009.16358         0.82616         4.70566
     2009.16632        -8.80973         4.79841
     2009.16906         1.20237         4.79344
     2009.17180        -3.78752         4.58723
     2009.17453        -7.91042         4.63195
     2009.17727         4.35869         4.73961
     2009.18001        -6.15821         4.72388
     2009.18275        -7.13910         4.66673
     2009.18548        -3.45500         4.63526
     2009.18822        -6.75089         4.58060
     2009.19096        -9.59579         4.60710
     2009.19370        -3.67168         4.72470
     2009.19644        -6.31257         4.64106
     2009.19917        -0.04547         4.65514
     2009.20191        -4.19136         4.65431
     2009.20467        -5.38924         4.61787
     2009.20739        -6.20615         4.57315
     2009.21013       -10.35505         4.62367
     2009.21286        -3.49794         4.61290
     2009.21560        -5.31484         4.63526
     2009.21834        -6.91173         4.56073
     2009.22108        -1.37063         4.57895
     2009.22381       -14.48852         4.59882
     2009.22655        -1.04042         4.73464
     2009.22929        -6.23131         4.55576
     2009.23203        -5.02620         4.59220
     2009.23477        -4.63010         4.65182
     2009.23733        -1.24513         4.93092
     2009.24269         7.12900        44.35838
     2009.24656         9.24997         7.34006
     2009.24846        -2.43757         4.64023
     2009.25119         1.46553         4.77853
     2009.25393        -4.24636         4.79841
     2009.25667        -1.98526         4.72802
     2009.25941        -5.06115         4.61207
     2009.26214        -3.12104         4.76528
     2009.26488        -1.17294         4.63360
     2009.26762         1.13217         4.71891
     2009.27036        -2.01373         4.66673
     2009.27310        -6.09362         4.61456
     2009.27583        -3.14752         4.69820
     2009.27857       -10.22341         4.70234
     2009.28131        -3.59731         4.76942
     2009.28405        -8.47520         4.71311
     2009.28679         0.61790         4.68495
     2009.28952        -6.84199         4.64354
     2009.29226        -8.22689         4.72553
     2009.29500        -4.97078         4.63775
     2009.29774        -5.86567         4.71394
     2009.30047        -4.90757         4.82077
     2009.30321        -1.37846         4.64851
     2009.30595        -1.63736         4.96322
     2009.30869        -2.88925         4.70400
     2009.31143        -3.50415         4.66590
     2009.31416         1.57296         4.67833
     2009.31690        -6.53794         4.60959
     2009.31964        -3.70183         4.64023
     2009.32238         0.10727         4.61539
     2009.32466        -7.13797         6.43570
     2009.32785        -3.91452         4.71559
     2009.33059        -2.33341         4.62450
     2009.33333        -4.17930         4.63526
     2009.33607         2.68880         4.67584
     2009.33880         4.23091         4.53422
     2009.34154        -6.46599         4.64271
     2009.34428        -0.48788         4.67004
     2009.34702        -4.57378         4.63360
     2009.34976        -3.87567         4.56984
     2009.35249        -5.41457         4.55741
     2009.35523        -6.38646         4.60545
     2009.35797        -4.33236         4.74624
     2009.36071         0.39675         4.72470
     2009.36344        -4.22415         4.68081
     2009.36618         0.12196         4.59717
     2009.36892        -4.17893         4.56652
     2009.37166         0.81517         4.71725
     2009.37440        -5.13472         4.66756
     2009.37713        -3.97462         4.62864
     2009.37987        -5.35151         4.73795
     2009.38261         0.06359         4.59551
     2009.38535        -4.01430         4.61042
     2009.38809        -4.06720         4.59882
     2009.39082        -8.10709         4.57977
     2009.39356        -4.78299         4.62284
     2009.39630        -4.30588         4.61704
     2009.39904        -1.83878         4.66011
     2009.40177         1.20633         4.61621
     2009.40451         1.52344         4.53422
     2009.40725         1.78154         4.56735
     2009.40999         0.92365         4.64520
     2009.41273        -4.30325         4.60131
     2009.41546         3.72986         4.62367
     2009.41820        -7.58504         4.55244
     2009.42094        -9.02293         4.54085
     2009.42368        -2.87083         4.58143
     2009.42642        -1.52472         4.59385
     2009.42915         0.73138         4.75452
     2009.43189        -5.69351         4.79427
     2009.43463        -4.48841         4.56155
     2009.43737         2.89170         4.56984
     2009.44010        -1.44319         4.59054
     2009.44284        -1.10209         4.62615
     2009.44558        -5.27698         4.63526
     2009.44832        -0.81188         4.67087
     2009.45106        -2.37777         4.59882
     2009.45379        -5.84167         4.99386
     2009.45653        -1.21456         4.62698
     2009.45927         0.01854         4.62367
     2009.46201        -3.97835         4.62615
     2009.46475         3.35275         4.70317
     2009.46748        -2.03814         4.72056
     2009.47022         1.72397         4.58888
     2009.47296         1.56607         4.64520
     2009.47570         2.11618         4.62698
     2009.47843         1.28028         4.87460
     2009.48117         2.12339         4.63692
     2009.48391        -1.67851         4.64686
     2009.48665        -2.75740         4.67833
     2009.48939        -2.02530         4.78599
     2009.49212         0.51381         4.69406
     2009.49486         1.46991         4.63940
     2009.49760         5.57402         5.11643
     2009.50034         2.64812         4.60793
     2009.50308         2.28323         4.60959
     2009.50581        -1.02266         4.60131
     2009.50855        -0.87056         4.65348
     2009.51129         3.42955         4.58888
     2009.51403         3.38565         4.63526
     2009.51676         8.63376         4.59137
     2009.51950        -0.79814         4.64768
     2009.52224        -3.42403         4.59882
     2009.52498         5.55907         4.74292
     2009.52772        13.14418         4.93754
     2009.53045        -3.79772         4.68495
     2009.53319         0.96939         4.58226
     2009.53593         4.78249         4.57812
     2009.53867         0.84560         4.62864
     2009.54141         7.89571         4.60710
     2009.54688         3.11492         4.61539
     2009.54962         4.05502         4.59220
     2009.55236         0.52913         4.58971
     2009.55509         7.80123         4.60462
     2009.55783         8.79434         4.62035
     2009.56057         8.85744         4.77357
     2009.56331         3.73255         4.84396
     2009.56605        -1.20335         5.01042
     2009.56878         0.68476         4.59882
     2009.57152         4.26586         4.65514
     2009.57426        12.57397         4.66011
     2009.57700         5.43908         4.77771
     2009.57974         3.27918         4.67667
     2009.58247         4.81229         4.71311
     2009.58521         7.32139         4.65762
     2009.58795         4.41750         4.71559
     2009.59069         2.17660         4.75120
     2009.59342        -3.28429         4.81994
     2009.59576       -10.71149        18.75885
     2009.59890         3.43392         4.64686
     2009.60164         1.42002         4.73713
     2009.60438         6.00513         4.63692
     2009.60711         5.73223         4.67667
     2009.60985         0.62734         4.61704
     2009.61259         1.63545         4.73547
     2009.61533        -2.58745         4.62864
     2009.61807         2.51766         4.58888
     2009.62080         2.43376         4.65017
     2009.62354        -1.12713         4.64354
     2009.62628         2.31897         4.69655
     2009.62902        11.46208         4.88371
     2009.63175         3.92318         4.67915
     2009.63449         3.25629         4.91435
     2009.63723         2.50239         4.78102
     2009.63997         5.32950         4.73961
     2009.64271        -1.72340         4.64686
     2009.64544         4.11671         4.66176
     2009.64818        -0.54318         4.81415
     2009.65092         1.76792         4.76114
     2009.65366         2.68503         4.70814
     2009.65639        -1.29887         4.59882
     2009.65913         0.25824         4.57149
     2009.66187         6.63634         4.56321
     2009.66461         4.69245         4.62781
     2009.66735         6.78455         4.74127
     2009.67008         2.07166         4.77522
     2009.67282        -2.49824         4.97978
     2009.67556         3.07787         4.58888
     2009.67830        10.84498         5.02616
     2009.68104         5.89508         4.82988
     2009.68377        -5.31581         4.62781
     2009.68651        10.51829         4.56735
     2009.68925         5.18640         4.74624
     2009.69199        -1.05350         4.62946
     2009.69472         4.32961         4.63692
     2009.69746         8.88471         4.63609
     2009.70020        10.82182         4.62781
     2009.70294        12.96892         4.64354
     2009.70568         1.20203         4.64851
     2009.70841         2.53213         4.71394
     2009.71115         3.90824         4.69323
     2009.71389         5.47935         4.87791
     2009.71663         1.32745         4.68992
     2009.71937        -1.80944         4.64106
     2009.72210        -5.46034         4.60628
     2009.72484         2.64577         4.65597
     2009.72758        -0.57813         4.66508
     2009.73032         7.31598         4.81663
     2009.73305         8.91308         4.68578
     2009.73579        -8.57481         5.00959
     2009.73853         8.35129         4.61704
     2009.74127         6.51340         4.82740
     2009.74401         1.34550         4.98723
     2009.74674         3.71161         4.74458
     2009.74948        -0.20028         4.77108
     2009.75222        -2.17018         4.63278
     2009.75496         5.17093         4.64106
     2009.75770         3.86903         4.64189
     2009.76043         5.17314         4.66011
     2009.76317         9.79724         4.73216
     2009.76591         6.37335         4.64603
     2009.76865         3.51245         4.72139
     2009.77138         1.41256         4.80090
     2009.77412         3.80566         4.68164
     2009.77686         4.31177         4.67584
     2009.77960         6.61587         4.61953
     2009.78234         8.12798         4.69737
     2009.78507        12.16009         4.72967
     2009.78781         6.99619         4.80752
     2009.79055        -3.23070         5.04272
     2009.79329         0.21140         5.04355
     2009.79603        -2.22149         4.76611
     2009.79876         4.48161         4.76694
     2009.80150         2.51472         4.74872
     2009.80424         1.78682         4.84479
     2009.80698         8.44393         4.80918
     2009.80971         4.44403         5.03610
     2009.81245         2.10614         4.90607
     2009.81519         9.45424         4.80338
     2009.81793         6.05135         4.81249
     2009.82067         3.30146         4.75700
     2009.82340         5.54656         4.69075
     2009.82558         7.54223         6.00919
     2009.83008        29.25569        97.45974
     2009.83162        -1.07612         5.13051
     2009.83436        -5.79502         4.78185
     2009.83709        -4.44891         4.85555
     2009.83983        -0.28381         4.81415
     2009.84257        -0.17970         4.78268
     2009.84531         3.37840         4.84727
     2009.84804         3.26951         4.92015
     2009.85078         3.69661         4.74375
     2009.85352         2.36172         4.78268
     2009.85626         1.86083         4.80835
     2009.85900         0.04093         4.84976
     2009.86173        -2.03696         4.80007
     2009.86447        -0.04086         4.98723
     2009.86721        -1.57875         4.89696
     2009.86959        -0.10092         5.59677
     2009.87269         2.98146         4.80669
     2009.87542        -0.88744         4.80752
     2009.87816         4.06067         4.95493
     2009.88090        -1.07323         7.05103
     2009.88364         3.85488         4.80255
     2009.88637        -0.23001         4.84313
     2009.88911         3.64509         4.66590
     2009.89185        -1.30580         4.68247
     2009.89459         0.38630         4.74541
     2009.89733        -8.41759         4.75038
     2009.90006        -8.67549         4.73547
     2009.90280        -6.73038         4.71477
     2009.90554        -1.75228         4.69820
     2009.90828        -6.30117         4.68164
     2009.91102        -9.59707         4.64520
     2009.91375        -5.61596         4.65679
     2009.91649        -5.89586         4.64106
     2009.91923       -10.89975         4.64520
     2009.92197        -9.52564         4.64934
     2009.92470        -7.47354         4.63112
     2009.92744       -10.57943         4.71725
     2009.93018        -8.60433         4.68412
     2009.93292        -9.29822         4.65431
     2009.93566       -11.35212         4.67667
     2009.93839        -5.24701         4.74375
     2009.94113        -4.30791         4.62201
     2009.94387        -6.98380         4.80007
     2009.94661        -3.19670         4.76942
     2009.94892        -5.51092         5.61250
     2009.95210       -10.41647         4.68744
     2009.95482       -11.10638         4.68164
     2009.95756       -14.08527         4.69903
     2009.96030        -9.18717         4.70897
     2009.96303       -15.03006         4.66342
     2009.96577        -9.09896         4.78433
     2009.96851       -13.55185         4.74789
     2009.97125        -3.78575         4.76860
     2009.97399        -6.48064         4.69075
     2009.97672       -11.90454         4.60876
     2009.97946       -12.49543         4.61704
     2009.98220       -10.67733         4.59717
     2009.98494       -11.78722         4.56652
     2009.98767       -10.95112         4.57480
     2009.99041        -6.38501         4.62946
     2009.99315        -8.30090         4.59551
     2009.99589        -6.21880         4.61124
     2009.99863        -8.17269         4.60131
     2010.00136       -16.06459         4.63195
     2010.00410       -12.91348         4.56984
     2010.00684        -7.90238         4.64023
     2010.00958        -9.16327         4.67004
     2010.01232       -10.93317         4.63195
     2010.01505       -17.43406         4.60462
     2010.01779       -11.14696         4.60710
     2010.02053        -4.98785         4.73050
     2010.02327       -14.50975         4.66590
     2010.02600        -2.98464         4.70400
     2010.02874       -13.19253         4.61539
     2010.03148        -4.27043         4.68744
     2010.03422        -8.64332         4.65928
     2010.03693        -5.52524         5.14044
     2010.03969        -0.17011         4.87212
     2010.04243        -3.97601         4.59717
     2010.04517         3.12110         4.67087
     2010.04791         6.66420         4.65514
     2010.05065        -0.92869         4.73630
     2010.05338        -2.87459         4.73961
     2010.05612         1.89652         4.65514
     2010.05886         0.47262         4.68578
     2010.06160        -6.89927         4.65928
     2010.06433        -9.08716         4.57895
     2010.06707        -2.54606         4.55410
     2010.06981       -13.73195         4.69820
     2010.07255        -6.36085         4.69489
     2010.07529       -10.39374         4.73464
     2010.07802        -8.04264         4.65845
     2010.08076        -2.35153         4.56487
     2010.08350        -1.80843         4.53091
     2010.08624        -1.33032         4.58391
     2010.08858         2.83548         6.10278
     2010.09171         1.62989         4.55244
     2010.09445         1.35999         4.72388
     2010.09719        -0.51190         4.73299
     2010.09993        -7.04679         4.59799
     2010.10266        -3.09069         4.60462
     2010.10540        -6.22758         4.72222
     2010.10814         5.70652         5.18765
     2010.11088        -0.35237         4.72967
     2010.11362        -2.82527         4.64271
     2010.11635         0.70184         4.63692
     2010.11909        -2.77506         4.63526
     2010.12183        -2.99095         4.65265
     2010.12457        -0.32185         4.62367
     2010.12731        -2.99674         4.75452
     2010.13004        -3.97863         4.68081
     2010.13278        -7.36253         4.62532
     2010.13552        -8.64442         4.64686
     2010.13826        -1.35432         4.60213
     2010.14099        -1.39421         4.61456
     2010.14373        -4.25011         4.73216
     2010.14647        -7.95500         4.80586
     2010.14921        -2.18990         4.62781
     2010.15195        -7.14579         4.58806
     2010.15468        -2.95769         4.60710
     2010.15742        -4.23258         4.67667
     2010.16016        -3.31348         4.62035
     2010.16290        -0.32237         4.71642
     2010.16564        -6.31026         4.61704
     2010.16837        -1.85916         4.65514
     2010.17111         1.69995         4.62450
     2010.17385        -7.49595         4.60793
     2010.17659        -2.25784         4.57812
     2010.17932         2.50426         4.54085
     2010.18206         0.30037         4.56901
     2010.18480        -0.26453         4.56404
     2010.18746        -1.11148         4.64271
     2010.19044         2.17681         4.85059
     2010.19301         2.15879         4.62118
     2010.19575        -1.14611         4.57066
     2010.19849        -4.90300         4.59468
     2010.20123        -4.34889         4.60545
     2010.20397        -7.70779         4.75369
     2010.20670       -10.48468         4.75866
     2010.20944        -7.66658         4.57729
     2010.21218        -6.29647         4.63195
     2010.21492        -0.93337         4.58723
     2010.21765        -6.01526         4.63195
     2010.22039        -5.70116         4.66590
     2010.22313        -5.73705         4.60048
     2010.22587        -2.00895         4.74375
     2010.22861         4.18016         4.66673
     2010.23134        -4.44074         4.66590
     2010.23402       -11.07067         4.76860
     2010.23956         2.15058         4.85307
     2010.24230         2.51969         4.77274
     2010.24503         0.01079         4.76363
     2010.24777         1.92790         4.76777
     2010.25051         3.91000         4.89199
     2010.25325         2.15411         4.70648
     2010.25598         2.44621         4.66839
     2010.25872         6.73932         4.68744
     2010.26146         1.25342         4.78930
     2010.26420         3.95853         4.87957
     2010.26694         3.26163         4.78930
     2010.26967        -1.09226         4.77108
     2010.27241        -7.30615         4.67667
     2010.27515        -4.48705         4.73299
     2010.27789        -2.01194         4.74044
     2010.28062        -3.21384         4.66673
     2010.28336       -10.02473         4.76114
     2010.28610        -6.44763         4.73381
     2010.28884        -7.04452         4.66176
     2010.29158       -11.34442         4.95990
     2010.29431        -9.42131         4.78433
     2010.29705        -3.02521         4.74955
     2010.29979        -2.13910         4.76114
     2010.30253         4.24200         5.46591
     2010.30520         4.45106         4.84810
     2010.30842        10.66654         5.56944
     2010.31074         5.66432         4.61539
     2010.31348         5.33243         4.56487
     2010.31622         1.25853         4.60876
     2010.31895        10.58164         4.82491
     2010.32169         8.16474         4.66839
     2010.32443         4.91985         4.64520
     2010.32717         6.80995         4.58143
     2010.32991         1.45206         4.63775
     2010.33264         4.41516         4.61207
     2010.33538         5.34727         4.76114
     2010.33812        -1.32362         4.59634
     2010.34086         2.21448         4.65597
     2010.34360        -1.46741         4.57563
     2010.34633         1.07069         4.63195
     2010.34907         0.89480         4.57232
     2010.35181        -1.64410         4.61787
     2010.35455         3.24701         4.57977
     2010.35728        -1.17089         4.59054
     2010.36002         2.89822         4.66922
     2010.36276         2.80932         4.56404
     2010.36550         1.70043         4.81911
     2010.36824        -0.67947         4.77025
     2010.37097         3.37564         4.62035
     2010.37371         4.86175         4.55493
     2010.37645         8.92585         4.65265
     2010.37880        -0.47534         5.71188
     2010.38193         1.76406         4.85473
     2010.38466         1.07317         4.69158
     2010.38740         7.18127         4.66839
     2010.39014         3.48438         4.63278
     2010.39288        -6.80752         4.61042
     2010.39561        -9.17241         4.65348
     2010.39835         0.50169         4.51683
     2010.40109         0.43080         4.54168
     2010.40383         1.28690         4.54996
     2010.40657         1.08501         4.53919
     2010.40930        -1.51688         4.58557
     2010.41204         0.67322         4.54582
     2010.41478         3.95433         4.56321
     2010.41752         2.77943         4.56984
     2010.42026        -0.32346         4.57895
     2010.42299         1.80464         4.54251
     2010.42573        -2.55325         4.51021
     2010.42847        -1.57215         4.59385
     2010.43121         1.90196         4.52429
     2010.43394        -2.31594         4.50275
     2010.43668       -10.47183         4.59882
     2010.43942         9.38427         4.53174
     2010.44216        -1.30362         4.52677
     2010.44490         0.48349         4.58391
     2010.44763        -1.29141         4.63775
     2010.45037        -3.91130         4.58640
     2010.45311        -2.77320         4.57812
     2010.45585         0.70391         4.58640
     2010.45859         6.37801         4.60959
     2010.46132         3.68012         4.73299
     2010.46406         4.37422         4.49613
     2010.46680         0.38833         4.53091
     2010.46954        -2.19457         4.56735
     2010.47227        -0.11546         4.54251
     2010.47501         3.16564         4.56901
     2010.47775         4.68075         4.75617
     2010.48049        -3.01514         4.65514
     2010.48323         5.79296         4.54168
     2010.48596        10.08907         4.53174
     2010.48870         6.16917         4.54333
     2010.49144         4.04928         4.51021
     2010.49418         3.16738         4.51600
     2010.49692         4.93249         4.53837
     2010.49965         5.34459         4.48702
     2010.50239         5.53770         4.56321
     2010.50513         9.17880         4.52180
     2010.50787         1.40891         4.49033
     2010.51060         6.26801         4.55493
     2010.51334         9.38012         4.58723
     2010.51608         7.14923         4.81083
     2010.51882        11.59433         4.56321
     2010.52156         8.77644         4.56487
     2010.52429        15.17354         4.60048
     2010.52703         7.36765         4.70648
     2010.52977         5.53775         4.53837
     2010.53251         7.17786         4.54085
     2010.53525         9.22996         4.59717
     2010.53798         6.17307         4.66176
     2010.54072         3.42517         4.53588
     2010.54346         0.17528         4.57977
     2010.54620         6.00139         4.54748
     2010.54893         4.94449         4.49033
     2010.55167         2.72660         4.51352
     2010.55441         7.64070         4.59717
     2010.55715         6.39581         4.56404
     2010.55989         5.07991         4.58143
     2010.56262        10.41002         4.59799
     2010.56536        -0.65388         4.52594
     2010.56810         5.13323         4.54913
     2010.57084         6.40533         4.53422
     2010.57357         3.15444         4.69323
     2010.57631         0.52954         4.68992
     2010.57905         3.91465         4.60628
     2010.58179        11.84176         4.63526
     2010.58453        -1.16914         4.61621
     2010.58726         4.49197         4.68909
     2010.59000         3.22007         4.67750
     2010.59274        10.54818         4.58226
     2010.59548        12.46928         4.62615
     2010.59822        11.87139         4.62201
     2010.60095         9.87149         4.53422
     2010.60369         5.29160         4.58557
     2010.60643        10.29570         4.52097
     2010.60917         6.47581         4.53505
     2010.61190        11.41991         4.60462
     2010.61464         7.65402         4.57895
     2010.61738         9.82713         4.53754
     2010.62012         5.66423         4.56818
     2010.62286        10.02634         4.54582
     2010.62559        10.11544         4.56321
     2010.62833        -0.27145         4.64768
     2010.63107         8.59765         4.70151
     2010.63381        12.14076         4.54499
     2010.63655        17.58886         4.63775
     2010.63928         8.94097         4.57729
     2010.64202         6.38407         4.58060
     2010.64476        -0.36682         4.69075
     2010.64747         7.10527         4.54913
     2010.65023        13.27139         4.71559
     2010.65297         8.75050         4.74624
     2010.65571         6.84960         4.49364
     2010.65845         8.25371         4.47046
     2010.66119         5.15381         4.58226
     2010.66392         7.30492         4.69655
     2010.66666         5.55902         4.54168
     2010.66940         6.00813         4.50275
     2010.67214         5.08123         4.58888
     2010.67488        11.16834         4.66425
     2010.67761         9.04444         4.56155
     2010.68035         7.74255         4.59137
     2010.68309         8.65265         4.55493
     2010.68583         6.17476         4.53588
     2010.68856         2.77987         4.55990
     2010.69130         4.63197         4.53257
     2010.69404         5.86708         4.65182
     2010.69678         5.80718         4.47377
     2010.69952         3.42529         4.50524
     2010.70225         3.33239         4.50690
     2010.70499         7.98950         4.57149
     2010.70773         2.79260         4.58391
     2010.71047        11.41871         4.57398
     2010.71321         3.97381         4.64023
     2010.71594        10.48992         4.67336
     2010.71868         7.72102         4.76694
     2010.72142         8.33913         4.71477
     2010.72416         6.69724         4.75286
     2010.72689         3.14934         4.74872
     2010.72963         2.56045         4.54582
     2010.73237         0.13655         4.69572
     2010.73511         7.75066         4.69240
     2010.73785        13.33476         4.69075
     2010.74058         8.31687         4.75203
     2010.74332         5.07797         4.53091
     2010.74606         7.97608         4.64437
     2010.74880         5.41718         4.61787
     2010.75154         5.19929         4.52594
     2010.75299       -22.52659        23.39991
     2010.75799        -9.59975         9.92478
     2010.75975         4.91761         4.54996
     2010.76249         8.30271         4.52760
     2010.76522        11.04782         4.59137
     2010.76796         1.26592         4.58806
     2010.77070         1.64003         4.68247
     2010.77344         8.38113         4.77688
     2010.77618         0.14124         4.52346
     2010.77891        -0.32066         4.56487
     2010.78165         6.56445         4.49033
     2010.78439         2.46355         4.70731
     2010.78713         5.15066         4.73464
     2010.78987        10.26077         4.50938
     2010.79260         5.20787         4.50275
     2010.79534         2.94398         4.53671
     2010.79808         8.36208         4.50772
     2010.80082         7.19619         4.56652
     2010.80355         6.62829         4.60793
     2010.80629         1.35840         4.62201
     2010.80903         7.95850         4.53008
     2010.81177         2.18161         4.66756
     2010.81451        13.51071         4.54748
     2010.81724        11.94882         4.57729
     2010.81998         6.30892         4.51352
     2010.82272         3.79703         4.55162
     2010.82546         3.78714         4.57812
     2010.82759         3.59377         9.40883
     2010.83106         3.94444        29.17308
     2010.83465       -10.42780         9.87260
     2010.83641        -1.04644         4.60213
     2010.83915         0.51366         4.56321
     2010.84188        -0.74923         4.54582
     2010.84462         5.60387         4.60545
     2010.84736         5.52198         4.57480
     2010.85010         4.23608         4.57729
     2010.85284         6.87119         4.54913
     2010.85557         3.88129         4.53340
     2010.85831         1.39140         4.48371
     2010.86105         1.36451         4.61124
     2010.86350         1.30139         5.12968
     2010.86653        -7.35328         4.53505
     2010.86926         0.47082         4.51932
     2010.87200        -0.34907         4.52843
     2010.87474         1.55603         4.71062
     2010.87748         1.54214         4.67253
     2010.88021         6.28724         4.49613
     2010.88295        -2.58465         4.65679
     2010.88569        -2.88955         4.47294
     2010.88843        -1.91544         4.66756
     2010.89117         4.11066         4.72139
     2010.89390         0.79077         4.59882
     2010.89664        -2.47112         4.50772
     2010.89938        -0.55302         4.48039
     2010.90212         2.23309         4.59220
     2010.90485         0.07719         4.46300
     2010.90759        -0.44270         4.42325
     2010.91033         1.23440         4.46631
     2010.91307        -6.88449         4.42159
     2010.91581        -2.96839         4.46797
     2010.91854        -0.13528         4.42739
     2010.92128        -6.98018         4.43070
     2010.92402        -2.22907         4.41083
     2010.92676         1.88503         4.42408
     2010.92950        -5.88086         4.46052
     2010.93223        -0.50175         4.51518
     2010.93497        -6.45365         4.50855
     2010.93771        -2.67054         4.52346
     2010.94045         2.95556         4.55907
     2010.94318        -0.14833         4.42408
     2010.94592        -0.00423         4.52346
     2010.94866         1.04588         4.48039
     2010.95140        -2.23602         4.70151
     2010.95414         0.54509         4.45969
     2010.95687        -6.75681         4.49696
     2010.95961        -5.25870         4.50275
     2010.96235        -0.63360         4.47128
     2010.96509        -4.48849         4.47046
     2010.96783        -1.39938         4.49530
     2010.97056        -3.09328         4.49447
     2010.97330         0.82483         4.45306
     2010.97604        -0.10607         4.45389
     2010.97878        -8.08196         4.57480
     2010.98151        -4.66686         4.49447
     2010.98425        -6.24275         4.54085
     2010.98699        -2.53665         4.43981
     2010.98973         0.65746         4.49033
     2010.99247         2.65556         4.59137
     2010.99520        -3.01633         4.51600
     2010.99794        -8.43022         4.47625
     2011.00068        -6.10012         4.40503
     2011.00342        -0.18201         4.46300
     2011.00616        -1.00091         4.46549
     2011.00889         0.28420         4.53588
     2011.01163        -2.27270         4.45306
     2011.01437        -3.38759         4.51352
     2011.01711         1.24651         4.61953
     2011.01984        -0.39138         4.48371
     2011.02258       -10.66028         4.52926
     2011.02532        -6.43417         4.53340
     2011.02806        -5.22907         4.65431
     2011.03080        -2.24996         4.58723
     2011.03353        -8.08985         4.48702
     2011.03627        -7.50875         4.46383
     2011.03901        -6.57264         4.51104
     2011.04175        -5.45154         4.53257
     2011.04449        -7.12143         4.45720
     2011.04722        -4.34833         4.55824
     2011.04971        -5.51942         5.21332
     2011.05325        -9.74070         6.01085
     2011.05544        -5.08401         4.50855
     2011.05817        -1.03791         4.42077
     2011.06091        -0.65480         4.45803
     2011.06365        -0.09570         4.47211
     2011.06639        -4.76259         4.41828
     2011.06913       -10.12148         4.74706
     2011.07186        -7.68238         4.48205
     2011.07460        -6.98627         4.44064
     2011.07734        -4.01117         4.43484
     2011.08008        -6.81006         4.46383
     2011.08282       -13.07296         4.45555
     2011.08555       -12.23785         4.44644
     2011.08829        -9.84775         4.48122
     2011.09103       -11.63764         4.44810
     2011.09377        -1.99554         4.57729
     2011.09650        -4.53643         4.51021
     2011.09924        -7.69533         4.52926
     2011.10198        -9.88022         4.55410
     2011.10472        -3.01611         4.41911
     2011.10746        -5.51901         4.42077
     2011.11019        -8.57490         4.43816
     2011.11293        -2.39380         4.46880
     2011.11567        -5.84669         4.58806
     2011.11841        -3.37859         4.55824
     2011.12115       -10.72848         4.52511
     2011.12388        -2.88438         4.58060
     2011.12662        -4.46827         4.64768
     2011.12936        -3.43017         4.45886
     2011.13210        -6.28306         4.46383
     2011.13483        -4.17096         4.61290
     2011.13757        -7.50985         4.45886
     2011.14031        -3.26674         4.41331
     2011.14305         0.00536         4.53008
     2011.14579        -0.75353         4.58226
     2011.14852        -1.81843         4.38267
     2011.15126        -2.36532         4.38019
     2011.15400        -3.11322         4.37604
     2011.15674         4.10889         4.43484
     2011.15948        -0.35601         4.96570
     2011.16221        -2.31090         4.42988
     2011.16495        -1.92180         4.51849
     2011.16769        -6.53769         4.43484
     2011.17043       -13.54459         4.47211
     2011.17316       -15.68148         4.46383
     2011.17590       -12.22737         4.44644
     2011.17864        -1.01627         4.47791
     2011.18138        -3.55216         4.44561
     2011.18412       -13.03106         4.51932
     2011.18644        -0.88427         5.43030
     2011.19043         0.32780         7.10735
     2011.19233        -7.85874         4.44395
     2011.19507        -4.25264         4.47957
     2011.19780        -2.83453         4.57398
     2011.20054        -5.84543         4.51186
     2011.20328         1.58968         4.56984
     2011.20602        -3.67821         4.56735
     2011.20876        -7.88911         4.52511
     2011.21149        -4.30300         4.51435
     2011.21423        -4.09990         4.58474
     2011.21697        -4.56079         4.59054
     2011.21971        -1.04669         4.64851
     2011.22245       -10.58558         5.56033
     2011.22518        -1.00648         4.41994
     2011.22792        -7.40437         4.48785
     2011.23066        -3.15927         4.47542
     2011.23340        -3.22716         4.47542
     2011.23613        -1.72406         4.48619
     2011.23887        -4.12195         4.50110
     2011.24161        -1.96684         4.42573
     2011.24435        -3.92274         4.47874
     2011.24709        -2.35763         4.47046
     2011.24980        -1.79855         4.55907
     2011.25256        -0.98342         4.45803
     2011.25530        -1.56732         4.45389
     2011.25804        -3.90021         4.61621
     2011.26078        -4.55111         4.60710
     2011.26351        -5.70300         4.44147
     2011.26625        -4.43090         4.43567
     2011.26899         0.16621         4.45472
     2011.27173        -7.01169         4.54416
     2011.27446        -0.88558         4.61373
     2011.27720        -4.80347         4.64106
     2011.27994        -6.09337         4.42822
     2011.28268        -2.02226         4.54913
     2011.28542        -9.78916         4.45555
     2011.28815        -7.75205         4.46052
     2011.29089        -5.23495         4.58391
     2011.29363        -4.11084         4.42408
     2011.29637        -2.25674         4.50772
     2011.29911        -2.88663         4.40586
     2011.30184         0.77147         4.57398
     2011.30458        -2.76242         4.44147
     2011.30732         2.50268         4.43981
     2011.31006         0.42079         4.43567
     2011.31279         2.23190         4.56404
     2011.31517        -0.07528         5.16529
     2011.31907         6.11472         6.79595
     2011.32101        -3.47579         4.44230
     2011.32375        -9.59868         4.45969
     2011.32648       -11.67958         4.42242
     2011.32922        -9.39547         4.44064
     2011.33196        -4.66837         4.45224
     2011.33470        -9.01026         4.51104
     2011.33744        -7.46416         4.51021
     2011.34017       -12.27205         4.77357
     2011.34291        -6.64195         4.56901
     2011.34565        -3.55284         4.52677
     2011.34839        -2.97373         4.51186
     2011.35112        -8.64063         4.47957
     2011.35386        -5.22752         4.53671
     2011.35660        -7.59742         4.46383
     2011.35934       -14.59731         4.86301
     2011.36208       -12.90021         4.44395
     2011.36481        -6.71010         4.54002
     2011.36755        -5.42300         4.54333
     2011.37029        -8.85689         4.58888
     2011.37303        -5.07279         4.53091
     2011.37577        -2.63768         4.55079
     2011.37850        -7.20558         4.51766
     2011.38124        -4.07747         4.48205
     2011.38398        -8.96736         4.55162
     2011.38672        -8.00426         4.55244
     2011.38945        -3.59815         4.53091
     2011.39219        -1.02005         4.52677
     2011.39493        -3.56494         4.53174
     2011.39767        -6.17284         4.59137
     2011.40035        -6.39378         4.66922
     2011.40309        -3.83167         4.62035
     2011.40582        -3.80157         4.59882
     2011.40856        -4.15946         4.62118
     2011.41130        -3.69535         4.61953
     2011.41410        -8.25620         4.73381
     2011.41683        -2.23210         4.55990
     2011.41917        -6.96730         5.46509
     2011.42292         4.11658        13.22420
     2011.42505       -18.73878         7.56118
     2011.42785        -2.72363         8.70488
     2011.43052        -1.79057         5.13382
     2011.43326       -11.28947         4.52180
     2011.43600        -6.75036         4.49116
     2011.43874       -10.12526         4.51435
     2011.44147        -3.41615         4.50524
     2011.44421        -4.43305         4.48785
     2011.44695        -4.20894         4.51683
     2011.44969        -4.09983         4.52429
     2011.45243       -13.27673         4.75617
     2011.45516        -5.55362         5.06922
     2011.45790        -1.18152         4.53340
     2011.46064       -10.44341         4.63609
     2011.46338        -7.23231         4.57646
     2011.46611        -4.55520         4.54002
     2011.46885        -1.21710         4.56652
     2011.47159        -2.66799         4.61207
     2011.47433        -0.42989         4.61704
     2011.47707         3.10222         4.52843
     2011.47980         3.40732         4.53671
     2011.48254        -0.48357         4.51352
     2011.48528        -5.18146         4.65100
     2011.48802        -0.26236         4.56073
     2011.49076         3.36875         4.57066
     2011.49349        -0.72615         4.60131
     2011.49623         5.36596         4.58143
     2011.49897         1.91406         4.56818
     2011.50171        -2.63683         4.61124
     2011.50444        -0.54673         4.57149
     2011.50718         0.26238         4.66590
     2011.50992        -0.62652         4.52594
     2011.51266        -0.41641         4.55659
     2011.51540         0.11569         4.76280
     2011.51813         3.39180         4.58723
     2011.52087         1.77591         4.55659
     2011.52361         2.69801         4.53505
     2011.52635        -1.03688         4.54416
     2011.52908         5.25922         4.54582
     2011.53182         0.19733         4.55576
     2011.53456         2.63643         4.58474
     2011.53730         2.56354         4.59220
     2011.54004         1.14464         4.53588
     2011.54277         3.91275         4.58474
     2011.54551         5.07385         4.57895
     2011.54825        -5.49704         4.58971
     2011.55099        -2.67994         4.64768
     2011.55373        -1.02983         4.52097
     2011.55646         3.59328         4.49696
     2011.55920        -4.38562         4.55327
     2011.56194         8.38249         4.59965
     2011.56468         0.48659         4.60710
     2011.56741         5.67570         4.53091
     2011.57015         4.69980         4.65762
     2011.57289         3.80491         4.54168
     2011.57563         4.83001         4.51932
     2011.57837         3.68812         4.60628
     2011.58110        -2.00278         4.52677
     2011.58384         4.44433         4.55576
     2011.58658         1.10243         4.71062
     2011.58932         2.67854         4.53588
     2011.59206         1.59365         4.57480
     2011.59479         1.58475         4.52843
     2011.59753         6.40786         4.54416
     2011.60027         5.44796         4.54830
     2011.60301         4.36707         4.56404
     2011.60574         2.33917         4.59799
     2011.60848         8.32128         4.77108
     2011.61122         7.24838         4.78764
     2011.61396         6.42749         4.64106
     2011.61670         6.57659         4.94500
     2011.61943         1.91270         4.62201
     2011.62217         1.24880         4.69075
     2011.62491         0.14291         4.62035
     2011.62765         3.90102         4.62035
     2011.63039         5.05312         4.60959
     2011.63312         4.14323         4.63112
     2011.63586         3.71633         4.53174
     2011.63860         5.14144         4.65762
     2011.64134         7.87054         4.82822
     2011.64407         4.97065         4.62698
     2011.64681         4.94375         4.92264
     2011.64955         2.36986         4.72802
     2011.65229         0.07096         4.66011
     2011.65485         3.86994         5.12388
     2011.65776         2.70518         4.78599
     2011.66050         4.94228         4.74292
     2011.66324         5.59139         4.66590
     2011.66598        -0.71751         4.70069
     2011.66872         4.50160         4.73050
     2011.67145        11.12870         4.59054
     2011.67419        10.37081         4.57066
     2011.67693         8.09191         4.58640
     2011.67967         6.69802         4.65679
     2011.68240         0.65812         4.61953
     2011.68514         8.95323         4.65265
     2011.68788         3.96433         4.67750
     2011.69062         7.31044         4.67667
     2011.69336        12.00655         4.65348
     2011.69609         1.91465         4.65597
     2011.69883         6.66376         4.64768
     2011.70157         6.87086         4.66673
     2011.70431         6.71197         4.67170
     2011.70705         5.12107         4.68495
     2011.70978        10.40618         4.64851
     2011.71252         3.91928         4.68909
     2011.71526         0.97439         4.72222
     2011.71800         6.39049         4.71228
     2011.72073         9.29760         4.70814
     2011.72347        -0.73230         4.76860
     2011.72621         1.82281         4.76031
     2011.72895         8.32892         4.67004
     2011.73169        -3.02498         5.04106
     2011.73442        12.93113         4.61870
     2011.73716        11.02623         4.79593
     2011.73990         3.55134         4.62367
     2011.74264        10.87944         4.61373
     2011.74538         2.87955         4.80090
     2011.74811        11.23665         4.78350
     2011.75085        10.77476         4.76777
     2011.75359        10.06286         4.77853
     2011.75633         8.88497         4.75369
     2011.75906        11.23907         4.66093
     2011.76180         6.16218         4.62781
     2011.76454         7.16229         4.68164
     2011.76728         6.00739         4.69737
     2011.77002         5.67250         4.73299
     2011.77275         9.00460         4.75866
     2011.77549         2.09771         4.70151
     2011.77823         3.84181         4.71145
     2011.78097         4.39192         4.64851
     2011.78371         7.32802         4.63195
     2011.78644        11.73713         4.55741
     2011.78918         7.05823         4.57066
     2011.79192         0.67534         4.59385
     2011.79466        -1.87156         4.67087
     2011.79739        12.65255         4.59882
     2011.80013         6.13166         4.57232
     2011.80287        13.77476         5.06177
     2011.80561         5.36287         4.74541
     2011.80835         1.05997         4.70483
     2011.81108         3.26008         4.58806
     2011.81382         1.50218         4.75286
     2011.81656         5.16829         4.53174
     2011.81930         0.74439         4.58309
     2011.82203         3.26950         4.68661
     2011.82477         5.01560         4.61787
     2011.82751         3.18371         4.72884
     2011.83025         2.55481         4.67501
     2011.83299        -0.58308         4.54830
     2011.83572        -1.82897         4.66093
     2011.83846         2.29013         4.56155
     2011.84120         7.93624         4.56321
     2011.84394         5.50234         4.53257
     2011.84668         5.73445         4.54168
     2011.84941         0.89255         4.53671
     2011.85215        -2.94434         4.56073
     2011.85489        -4.75024         4.64023
     2011.85763         3.25687         4.67501
     2011.86031        11.68193         4.69075
     2011.86310         7.63908         4.67833
     2011.86858        10.96729         4.55576
     2011.87134         6.18941         4.55493
     2011.87405         0.23050         4.52429
     2011.87679         3.97661         4.58557
     2011.87953         2.58971         4.58888
     2011.88227        -1.87318         4.57066
     2011.88501         4.25492         4.84065
     2011.88774        -1.31997         4.60296
     2011.89048         9.22013         4.63195
     2011.89322         5.43424         4.68826
     2011.89596        -5.21466         4.60628
     2011.89869        -3.58655         4.58806
     2011.90143         0.21156         4.64437
     2011.90417         2.01266         4.57729
     2011.90691         3.31677         4.53174
     2011.90965         2.99087         4.61704
     2011.91238         0.05998         4.65597
     2011.91512        -3.04792         4.61456
     2011.91786        -0.47281         4.64686
     2011.92060        -5.67471         4.53505
     2011.92334        -5.13860         4.65348
     2011.92607        -4.98450         4.87129
     2011.92881        -4.45839         4.65100
     2011.93155         0.92171         4.63195
     2011.93429        -1.57818         4.63443
     2011.93702        -3.03807         4.62450
     2011.93976         0.09603         4.62698
     2011.94250         6.22514         4.64851
     2011.94524        -0.96776         4.64023
     2011.94798         4.78535         4.63609
     2011.95071         1.42845         4.54251
     2011.95345         1.20356         4.61787
     2011.95619         0.61466         4.70069
     2011.95893         0.75077         4.49696
     2011.96167        -7.58013         4.65265
     2011.96440         1.56998         4.54499
     2011.96714        -1.51392         4.51104
     2011.96988         5.85419         4.46797
     2011.97262        -0.16670         4.42905
     2011.97535        -5.78060         4.50690
     2011.97809        -6.83849         4.48122
     2011.98083        -1.04539         4.62367
     2011.98357         2.68872         4.48039
     2011.98631         8.20382         4.50358
     2011.98904         1.90793         4.55162
     2011.99178         6.21403         4.53671
     2011.99452         3.64314         4.56735
     2011.99726         3.35024         4.46052
     2012.00000        -3.84265         4.45803
     2012.00273         2.22145         4.51849
     2012.00547        -1.66444         4.51104
     2012.00821         1.95667         4.57149
     2012.01095        -0.30523         4.57729
     2012.01368         0.26588         4.50607
     2012.01642         3.98998         4.48288
     2012.01916         1.55309         4.44727
     2012.02190         7.00719         4.53340
     2012.02464        -0.07070         4.45720
     2012.02737        -0.58960         4.41000
     2012.03011         0.91251         4.45472
     2012.03285        -0.40339         4.51021
     2012.03559        -0.28928         4.53505
     2012.03833         2.55882         4.66259
     2012.04106        -0.77407         4.41580
     2012.04315         1.21553         6.22949
     2012.06923         0.05459         6.88126
     2012.07118        -6.76691         4.41828
     2012.07392         2.46720         4.40420
     2012.07666         1.93930         4.43153
     2012.07939         0.99141         4.45555
     2012.08213        -1.81549         4.42325
     2012.08487         5.41862         4.50275
     2012.08761        -3.26228         4.46135
     2012.09034        -1.27017         4.44064
     2012.09308        -1.79707         4.43070
     2012.09582        -0.88296         4.48453
     2012.09856        -1.25086         4.49696
     2012.10130        -1.99975         4.55576
     2012.10403        -0.72365         4.53340
     2012.10677        -9.55654         4.60131
     2012.10951         2.65957         4.54499
     2012.11225        -5.68933         4.49944
     2012.11498        -7.07022         4.53505
     2012.11772         5.94488         4.62450
     2012.12046         4.28599         4.49530
     2012.12320        -1.38291         4.46797
     2012.12594        -2.77880         4.50772
     2012.12867        -3.93970         4.49033
     2012.13141        -2.39559         4.55990
     2012.13415        -1.06649         4.56570
     2012.13689        -3.86238         4.54333
     2012.13963         2.29772         4.58474
     2012.14236        -7.41117         4.79096
     2012.14510        -1.33106         4.51435
     2012.14784        -7.15796         4.45141
     2012.15058        -3.06285         4.51766
     2012.15331        -6.35775         4.44644
     2012.15605        -3.35764         4.52097
     2012.15879        -8.03954         4.71725
     2012.16153        -0.62543         4.46135
     2012.16427        -5.98633         4.54168
     2012.16700        -0.71622         4.56404
     2012.16974        -3.19712         4.52594
     2012.17248        -2.20801         4.46880
     2012.17522         4.02709         4.52263
     2012.17796        -5.21680         4.53837
     2012.18069        -6.94269         4.55327
     2012.18343        -9.67759         4.51600
     2012.18617        -7.46448         4.56238
     2012.18891        -0.51538         4.46631
     2012.19164        -0.47427         4.50275
     2012.19438         2.74983         4.52677
     2012.19712         4.05094         4.47211
     2012.19986        -1.93296         4.52429
     2012.20260        -2.79285         4.60876
     2012.20533        -0.19775         5.05928
     2012.20807         3.97636         4.44313
     2012.21081        -0.39854         4.43981
     2012.21355        -4.39043         4.41580
     2012.21629        -3.24032         4.53422
     2012.21902        -6.99322         4.51104
     2012.22160       -11.36023         5.01788
     2012.22475        -9.69382         4.98061
     2012.22724        -6.08490         4.46300
     2012.22997        -4.37980         4.47708
     2012.23271         1.05131         4.54996
     2012.23545        -5.79259         4.47294
     2012.23819        -1.79448         4.62367
     2012.24093         3.93762         4.50607
     2012.24366        -3.66927         4.49033
     2012.24640        -1.76717         4.48122
     2012.24914        -6.27406         4.49696
     2012.25188       -13.77895         4.43816
     2012.25462        -5.75985         4.51766
     2012.25735        -7.05574         4.47542
     2012.26009        -6.70564         4.42325
     2012.26283        -1.90953         4.52429
     2012.26557        -8.09543         4.41000
     2012.26830        -6.21032         4.42408
     2012.27104        -6.93722         4.52843
     2012.27378        -4.87811         4.41414
     2012.27652        -1.27701         4.44892
     2012.27926        -4.20690         4.66176
     2012.28199        -2.37080         4.46135
     2012.28473         0.74431         4.50938
     2012.28747        -9.14758         4.47874
     2012.29021        -5.39948         4.49530
     2012.29295        -4.36537         4.44478
     2012.29568       -11.45327         4.43650
     2012.29842        -2.94816         4.44395
     2012.30116        -8.49506         4.56155
     2012.30390        -8.37395         4.43484
     2012.30663       -11.70985         4.67750
     2012.30937        -6.70974         4.47128
     2012.31211        -3.64464         4.61124
     2012.31485        -3.91353         4.57563
     2012.31759        -5.48242         4.45389
     2012.32032        -3.71332         4.50110
     2012.32306        -7.51021         4.42656
     2012.32580        -8.70011         4.43236
     2012.32854        -4.42000         4.50690
     2012.33128        -1.14690         4.55410
     2012.33401        -8.25779         4.98972
     2012.33675        -6.18769         4.45720
     2012.33949        -8.84358         4.48122
     2012.34223       -12.02948         4.44147
     2012.34461       -15.25064         5.73424
     2012.34787        -1.50913         4.78350
     2012.35044       -12.00916         4.48785
     2012.35318        -2.29505         4.49944
     2012.35592        -7.37195         4.46217
     2012.35865        -7.85284         4.42325
     2012.36139        -5.68974         4.41911
     2012.36413        -7.35263         4.42573
     2012.36687        -6.99753         4.43153
     2012.36961        -0.58942         4.48619
     2012.37234        -5.76332         4.48453
     2012.37508        -2.62721         4.45803
     2012.37782        -2.13211         4.55410
     2012.38056        -8.54100         4.52760
     2012.38329        -3.96590         4.50607
     2012.38603        -4.92279         4.58640
     2012.38877        -5.84168         4.60379
     2012.39151        -4.20358         4.52263
     2012.39425        -4.25447         4.50027
     2012.39698        -4.44537         4.53505
     2012.39972        -2.04426         4.42988
     2012.40246        -3.39216         4.42325
     2012.40520        -2.42805         4.45886
     2012.40794        -6.22795         4.40586
     2012.41067        -2.99184         4.43733
     2012.41341        -8.07174         4.47377
     2012.41615        -1.52163         4.51352
     2012.41889        -4.62453         4.68412
     2012.42162        -3.67942         4.44727
     2012.42436        -1.23331         4.43484
     2012.42710        -2.45121         4.41828
     2012.42984         1.51590         4.49447
     2012.43258        -5.30800         4.50772
     2012.43531        -7.14389         4.45224
     2012.43805        -0.18279         4.41745
     2012.44079        -9.68368         4.42408
     2012.44353        -9.61658         4.46880
     2012.44626        -4.68047         4.42573
     2012.44900        -1.88937         4.45306
     2012.45174        -3.96126         4.45886
     2012.45448        -0.40916         4.42491
     2012.45722         1.45895         4.44975
     2012.45995        -1.08794         4.53919
     2012.46269        -3.01784         4.46880
     2012.46543        -3.96973         4.49199
     2012.46817         3.47437         4.42573
     2012.47091        -1.42552         4.48702
     2012.47364         0.92058         4.45141
     2012.47912        -2.68921         4.48039
     2012.48186        -0.85110         4.41994
     2012.48459        -0.43200         4.44064
     2012.48733        -5.05589         4.42077
     2012.49007        -5.17179         4.50772
     2012.49281        -6.75568         4.52511
     2012.49555         1.09443         4.44478
     2012.49828        -2.32047         4.39675
     2012.50102         4.79864         4.45720
     2012.50376         7.23074         4.51104
     2012.50650        -3.29215         4.43816
     2012.50924         0.46095         4.54748
     2012.51197        -1.71894         4.53174
     2012.51471        -1.89084         4.48868
     2012.51745        -4.74173         4.49696
     2012.52019        -1.62563         4.54168
     2012.52292        -3.81652         4.51600
     2012.52566        -2.54641         4.47708
     2012.52840         1.17269         4.44395
     2012.53114         7.48480         4.94500
     2012.53388        -2.00010         4.50193
     2012.53661        -1.78099         4.54085
     2012.53935        -1.97889         4.55741
     2012.54209         5.24022         4.39592
     2012.54483        -1.91168         4.62035
     2012.54757         3.18943         4.48702
     2012.54979        -1.87986         5.99511
     2012.55578         5.51274         4.41083
     2012.55852        -2.84415         4.58143
     2012.56125         4.63996         4.44644
     2012.56399         3.92906         4.47542
     2012.56673         1.19817         4.40834
     2012.56947         8.11927         4.45555
     2012.57221        -3.35462         4.44727
     2012.57494         4.74148         4.46466
     2012.57768         3.35659         4.42159
     2012.58042         4.35869         4.49696
     2012.58316         0.32980         4.73381
     2012.58590         2.86590         4.45720
     2012.58863         6.63301         4.42573
     2012.59137         3.64011         4.51352
     2012.59394         5.03509         4.64768
     2012.59685         4.13533         4.52263
     2012.59958        -0.32357         4.54499
     2012.60232         2.03054         4.61373
     2012.60506         4.55364         4.51932
     2012.60780         5.13675         4.44478
     2012.61054         5.08685         4.47460
     2012.61327         7.09896         4.45058
     2012.61601         3.96806         4.48950
     2012.61875         7.95117         4.53174
     2012.62149        12.35527         4.53671
     2012.62423         8.82738         4.43070
     2012.62696         6.42748         4.45886
     2012.62970         5.74359         4.89531
     2012.63244        -0.80830         4.81663
     2012.63518         8.71280         4.57646
     2012.63791         6.58391         4.55659
     2012.64065         7.95701         4.42491
     2012.64339        13.24312         4.38515
     2012.64613        10.55322         4.47625
     2012.64887         7.98433         4.46963
     2012.65160        14.43943         4.52180
     2012.65434         6.66754         4.59385
     2012.65708         5.66664         4.58806
     2012.65982         7.73175         4.61621
     2012.66256         9.20485         4.46714
     2012.66529         9.78796         4.44644
     2012.66803        11.91407         4.42408
     2012.67077         5.79317         4.47791
     2012.67351         6.26028         4.50855
     2012.67624         9.56638         4.49447
     2012.67898         8.29049         4.46963
     2012.68172         9.61559         4.69572
     2012.68446         6.19670         4.45555
     2012.68720        15.15280         4.44727
     2012.68993         9.99291         4.49447
     2012.69267         6.69301         4.75286
     2012.69541         3.98912         4.53422
     2012.69815         6.65722         4.52843
     2012.70089         4.01933         4.56818
     2012.70362        -0.07056         4.52097
     2012.70636         1.64554         4.50855
     2012.70910         5.26965         4.45389
     2012.71184        11.20775         4.43236
     2012.71457         8.95586         4.39923
     2012.71731        17.53096         4.41497
     2012.72005         9.16007         4.49447
     2012.72279         9.03917         4.48950
     2012.72553         6.81128         4.45058
     2012.72826         9.04938         4.41331
     2012.73100        10.37849         4.55907
     2012.73374        11.48960         4.58391
     2012.73648         5.14970         4.85970
     2012.73921         8.28281         4.58309
     2012.74195         7.30391         4.60545
     2012.74469         7.64302         4.56238
     2012.74743         8.24212         4.45803
     2012.75017        -0.46277         5.08579
     2012.75290         8.01933         5.85433
     2012.75564         4.73544         4.44313
     2012.75838         2.62454         4.43981
     2012.76112         7.16965         4.47046
     2012.76386         5.16275         4.41414
     2012.76659         9.49186         4.53174
     2012.76933        10.03197         4.53008
     2012.77207         8.39807         4.55659
     2012.77481         6.98418         4.81746
     2012.77754         6.10128         4.51932
     2012.78028        12.47139         4.57895
     2012.78302         2.31449         4.67253
     2012.78576         9.80760         4.86135
     2012.78850         4.95570         4.70648
     2012.79123         5.44481         4.73547
     2012.79397         5.96891         4.50027
     2012.79671         6.50102         4.53091
     2012.79945         7.65812         4.62781
     2012.80219         9.38123         4.57315
     2012.80492         3.54834         4.54499
     2012.80766         1.37244         4.52760
     2012.81040         1.21155         4.57729
     2012.81314        -2.92435         4.57232
     2012.81587        -0.18724         4.53837
     2012.81861        -4.23114         4.70069
     2012.82135         7.64697         4.80007
     2012.82409        -0.80193         4.66673
     2012.82683        -2.90582         4.59882
     2012.82956         2.87528         4.68164
     2012.83230        -8.66261         4.61539
     2012.83504        -1.43151         4.56984
     2012.83778        -0.04640         4.58226
     2012.84052         1.93771         4.69655
     2012.84325        -4.06219         4.63112
     2012.84599        -8.91708         5.17854
     2012.84873        -2.81298         4.63112
     2012.85147         5.48813         4.66756
     2012.85420        -0.34777         4.59220
     2012.85694        -3.30366         4.56487
     2012.85968        -0.60256         4.54416
     2012.86242        -0.79645         4.55162
     2012.86516         2.16765         4.56487
     2012.86789        -1.19024         4.71311
     2012.87063        -2.26614         4.53008
     2012.87337        -5.91703         4.64354
     2012.87611        -0.51292         4.54748
     2012.87885        -0.40582         4.55327
     2012.88158         0.80529         4.52594
     2012.88432         6.41439         4.62615
     2012.88706       -10.44950         4.73381
     2012.88980        -0.45340         4.63526
     2012.89253        -2.10929         4.47460
     2012.89527        -1.18819         4.55741
     2012.89801        -8.21608         4.61953
     2012.90075         1.33402         4.53008
     2012.90349        -6.61487         4.51766
     2012.90622        -1.20777         4.50027
     2012.90896         2.23334         4.62946
     2012.91170        -1.47755         4.60379
     2012.91444         2.59055         4.59882
     2012.91718        -1.79734         4.51849
     2012.91991        -6.34924         4.57232
     2012.92265         0.64687         4.49530
     2012.92539        -3.74203         4.52677
     2012.92813        -9.67792         4.54002
     2012.93086        -1.99282         4.54748
     2012.93360        -8.74171         4.62035
     2012.93634        -3.47261         4.47294
     2012.93908        -5.91250         4.47957
     2012.94182        -4.83539         4.60048
     2012.94455         7.23671         4.45389
     2012.94729        -2.04218         4.56570
     2012.95003         0.52892         4.60296
     2012.95277         4.24803         4.49033
     2012.95551         9.82013         4.47294
     2012.95824         6.38724         4.46714
     2012.96098         4.34134         4.65017
     2012.96372        -0.56555         4.56818
     2012.96646        -0.46045         4.52429
     2012.96919         0.05266         4.62532
     2012.97193        -4.64824         4.58557
     2012.97467        -4.88713         4.51849
     2012.97741         0.52798         7.00879
     2012.98015       -18.65092         4.51849
     2012.98288        -1.91281         4.46383
     2012.98562         2.28429         4.45555
     2012.98836         1.99740         4.46880
     2012.99110        -0.84750         4.45555
     2012.99384        -0.83539         4.48205
     2012.99657        -1.46929         4.43733
     2012.99931         2.19782         4.49613
     2013.00205         2.55892         4.46217
     2013.00479         2.79303         4.47708
     2013.00752        -5.48787         4.47377
     2013.01026        -5.26276         4.52429
     2013.01300        -0.97165         4.54416
     2013.01574         0.27145         4.50441
     2013.01848         2.83956         4.58888
     2013.02121         2.97966         4.54168
     2013.02395        -2.31023         4.50607
     2013.02669         1.97187         4.64189
     2013.02943        -5.29702         4.52346
     2013.03216        -4.01492         4.46797
     2013.03490        -4.88781         4.52926
     2013.03764        -7.43971         4.48205
     2013.04038       -10.81760         4.48205
     2013.04312       -13.76250         4.58888
     2013.04585        -5.77739         4.61207
     2013.04859        -8.06528         4.60213
     2013.05133        -8.32918         4.49447
     2013.05407        -6.40807         4.50275
     2013.05681        -5.82197         4.49447
     2013.05954        -2.54586         4.53754
     2013.06228        -2.60176         4.69406
     2013.06502        -0.62665         4.62946
     2013.06776        -3.02755         4.55907
     2013.07049        -1.97544         4.58391
     2013.07323        -2.03734         4.52429
     2013.07597         1.18777         4.56404
     2013.07871        -4.47113         4.65265
     2013.08145         1.69498         4.48288
     2013.08418        -8.29991         4.51766
     2013.08692        -7.43281         4.49696
     2013.08966        -7.23170         4.49282
     2013.09240        -1.75260         4.54665
     2013.09514         2.11951         4.51104
     2013.09787        -1.40139         4.72305
     2013.10061        -2.51928         4.86715
     2013.10335        -7.84318         4.69820
     2013.10609        -2.85607         4.51435
     2013.10882        -2.13297         4.48371
     2013.11156       -12.83286         4.63360
     2013.11430        -4.01376         4.54416
     2013.11704        -9.21165         4.54251
     2013.11978        -8.24754         4.71311
     2013.12251        -5.69744         4.48122
     2013.12525        -9.96033         4.50110
     2013.12799        -0.73523         4.63195
     2013.13073        -6.62512         4.51766
     2013.13347        -3.58502         4.53505
     2013.13620        -0.48991         4.50772
     2013.13894         0.21819         4.48785
     2013.14168         1.96130         4.50358
     2013.14442        -0.21260         4.69240
     2013.14715        -0.02349         4.67419
     2013.14989       -10.84439         4.47460
     2013.15263        -4.69428         4.54830
     2013.15537       -13.26417         4.64437
     2013.15811        -7.49607         4.50690
     2013.16084       -14.42096         4.51683
     2013.16358       -10.37586         4.53754
     2013.16632       -14.89675         4.49944
     2013.16906         1.05435         4.51766
     2013.17180        -1.08054         4.48288
     2013.17453        -5.77744         4.49364
     2013.17727        -4.91033         4.58888
     2013.18001        -7.81723         4.63609
     2013.18275        -3.86412         4.48536
     2013.18548        -3.79401         4.43981
     2013.18822        -7.91391         4.46052
     2013.19096       -10.77080         4.50524
     2013.19370        -6.37170         4.50027
     2013.19644       -11.64659         4.53588
     2013.19917        -6.06349         4.51518
     2013.20191        -6.15238         4.53174
     2013.20465        -5.36028         4.50441
     2013.20739        -2.68117         4.56073
     2013.21013        -7.95107         4.51600
     2013.21286        -4.83496         4.44644
     2013.21560        -8.62986         4.54665
     2013.21834        -5.98775         4.44478
     2013.22108        -7.66964         4.49199
     2013.22381       -10.41954         4.44230
     2013.22655        -8.57943         4.44147
     2013.22929        -9.84233         4.45886
     2013.23203       -10.41022         4.56570
     2013.23477        -7.69412         4.53671
     2013.23750       -10.43101         4.73381
     2013.24024        -8.45491         4.53671
     2013.24298        -6.18580         4.51932
     2013.24572        -2.82470         4.56487
     2013.24846        -2.81059         4.54830
     2013.25119        -7.16549         4.59054
     2013.25393        -4.03538         4.54416
     2013.25667        -9.71427         4.66590
     2013.25941         1.04283         4.59634
     2013.26214         0.39294         4.56155
     2013.26488         3.93404         4.58640
     2013.26762        -5.99885         4.54416
     2013.27036        -7.16075         4.55493
     2013.27310        -8.39664         4.67170
     2013.27583        -7.42754         4.62864
     2013.27857        -2.56243         4.64271
     2013.28131         3.57467         4.60876
     2013.28405        -4.79422         4.61870
     2013.28679        -3.92512         4.51104
     2013.28952        -5.28801         4.48536
     2013.29226       -11.52490         4.50524
     2013.29500        -4.08180         4.54168
     2013.29774       -10.71569         4.54665
     2013.30047       -11.65459         4.53919
     2013.30321       -11.68648         4.50607
     2013.30595       -10.04238         4.83237
     2013.30869       -10.37827         4.75286
     2013.31143       -13.67217         4.53174
     2013.31416        -5.47306         4.50855
     2013.31690        -5.20096         4.62532
     2013.31964        -6.03585         4.54582
     2013.32238        -7.31475         4.53754
     2013.32512        -2.94664         4.50855
     2013.32785       -10.93653         4.52263
     2013.33059        -9.24243         4.53340
     2013.33333       -14.08232         4.55990
     2013.33607       -11.43022         4.48868
     2013.33880        -1.26911         4.52263
     2013.34154        -4.65901         4.51683
     2013.34428        -4.41890         4.53008
     2013.34702        -2.15380         4.51849
     2013.34970        -9.06674         4.83154
     2013.35249        -8.17059         4.46300
     2013.35523        -5.44648         4.61539
     2013.35797        -2.12538         4.52511
     2013.36059       -13.86236         5.29034
     2013.36344        -3.32316         4.61373
     2013.36618        -6.60106         4.55079
     2013.36892        -1.57195         4.51352
     2013.37166        -7.59385         4.55990
     2013.37440        -4.19974         4.51518
     2013.37713        -4.64364         4.54996
     2013.37987        -5.29353         4.50524
     2013.38261        -9.15043         4.51104
     2013.38535       -14.81532         4.60131
     2013.38809        -4.99822         4.53671
     2013.39082        -7.46711         4.61539
     2013.39356        -1.40900         4.44064
     2013.39630        -1.98890         4.49779
     2013.39904         0.71821         4.48868
     2013.40177        -0.39069         4.55990
     2013.40451        -3.59358         4.57315
     2013.40725        -0.55948         4.48536
     2013.40999        -0.64837         4.49779
     2013.41273        -5.30027         4.49364
     2013.41546        -8.18216         4.76363
     2013.41820        -4.61806         4.62946
     2013.42094         2.32205         4.51352
     2013.42368        -5.13885         4.56404
     2013.42642         1.52926         4.57812
     2013.42915         1.61037         4.55741
     2013.43189        -9.96753         4.66176
     2013.43463         0.49158         4.64189
     2013.43737        -0.43332         4.48950
     2013.44010        -1.40321         4.49282
     2013.44284        -1.95611         4.50524
     2013.44558        -5.41800         4.64520
     2013.44832        -9.83190         4.52594
     2013.45106        -4.83579         4.55659
     2013.45379        -0.80869         4.53422
     2013.45653         0.53242         4.51104
     2013.45893       -10.50474         5.94294
     2013.46201        -6.70237         4.62946
     2013.46475        -4.21726         4.53837
     2013.46748         2.50784         4.49613
     2013.47022        -1.08205         4.51186
     2013.47296        -3.71395         4.47294
     2013.47570         2.74716         4.49116
     2013.47843         2.45626         4.47128
     2013.48117        -6.50463         4.74375
     2013.48391        -0.36553         4.57315
     2013.48665        -6.67542         4.55410
     2013.48939        -2.39632         4.50524
     2013.49212        -4.56521         4.59385
     2013.49486        -2.79011         4.60048
     2013.49760         4.06300         4.48950
     2013.50034        -2.55289         4.50275
     2013.50308        -6.11879         4.55162
     2013.50581         4.02832         4.46383
     2013.50855         1.65242         4.48122
     2013.51129         0.71853         4.46052
     2013.51403         5.48863         4.48205
     2013.51676         4.08574         4.47708
     2013.51950         4.52184         4.45306
     2013.52224         5.64695         4.59717
     2013.52498         2.53605         4.71311
     2013.52766         4.84712         4.57895
     2013.53045        -3.58974         4.60296
     2013.53319        -1.37563         4.47542
     2013.53496        -5.98927        11.07593
     2013.53867         1.56258         4.49282
     2013.54141        -5.79431         4.67004
     2013.54414         3.22979         4.51021
     2013.54688         0.09790         4.49944
     2013.54962         4.96500         4.46217
     2013.55236         7.67111         4.67833
     2013.55509         2.67221         4.54830
     2013.55783         6.89132         4.48536
     2013.56057         0.36142         4.52097
     2013.56331         2.07053         4.70234
     2013.56605         1.55163         4.51766
     2013.56878         4.54674         4.46880
     2013.57152        10.89985         4.63692
     2013.57426         9.65395         4.60710
     2013.57700         2.58306         4.49364
     2013.57974         2.56516         4.49944
     2013.58247         9.62627         4.51518
     2013.58521         6.76537         4.54251
     2013.58795         6.05748         4.50110
     2013.59069         6.32358         4.45555
     2013.59342         0.86469         4.45638
     2013.59616         6.68179         4.51766
     2013.59890         4.65990         4.51104
     2013.60164         6.82501         4.49944
     2013.60438         6.00411         4.54913
     2013.60711         0.17622         4.61124
     2013.60985         8.58132         4.69075
     2013.61259         6.49243         4.80172
     2013.61533         8.58953         4.75783
     2013.61807         5.84964         4.64271
     2013.62080        -0.60626         4.61787
     2013.62354         4.22285         4.56901
     2013.62628         7.63695         4.58640
     2013.62902         5.68006         4.66756
     2013.63175         9.24516         4.50855
     2013.63449         8.25827         4.63692
     2013.63723         6.82838         4.48122
     2013.63997        14.73948         4.56321
     2013.64271         5.86959         4.55576
     2013.64544        10.19269         4.52180
     2013.64818         9.28380         4.53422
     2013.65092         6.35290         4.58806
     2013.65366         1.43601         4.60628
     2013.65639        13.86111         4.55327
     2013.65913         5.58322         4.67915
     2013.66187        10.80532         4.71394
     2013.66461         6.69543         4.48950
     2013.66735        10.99553         4.59385
     2013.67008         9.02964         4.51849
     2013.67282         6.04775         4.73381
     2013.67556         5.85885         4.68495
     2013.67830        15.07896         4.60710
     2013.68104        14.08206         4.65762
     2013.68377        12.26717         4.46631
     2013.68651        12.75727         4.51352
     2013.68925         0.33738         4.55410
     2013.69199        13.25248         4.70731
     2013.69472         9.95159         4.47874
     2013.69746         6.49169         4.50193
     2013.70020        11.41580         4.46963
     2013.70294        11.64490         4.47957
     2013.70568         8.78301         4.51104
     2013.70841        12.74412         4.69737
     2013.71115        10.04922         4.49033
     2013.71389         4.83333         4.56155
     2013.71663        10.81843         4.50441
     2013.71937         5.77954         4.51932
     2013.72210        18.09964         4.54251
     2013.72484        17.92375         4.61456
     2013.72729         7.85963         5.17854
     2013.73032         7.72096         4.52760
     2013.73305         6.80706         4.50358
     2013.73579         6.49417         4.45969
     2013.73853         7.13527         4.53091
     2013.74127         8.23238         4.60296
     2013.74401        18.35049         4.62615
     2013.74674         3.43459         4.59220
     2013.74948         0.12070         4.53422
     2013.75222        -1.16620         4.60710
     2013.75496        -3.63809         4.49116
     2013.75770        -0.37299         4.49613
     2013.76043        -2.82788         4.52180
     2013.76317         2.64622         4.47128
     2013.76591         5.65933         4.58226
     2013.76865        -4.54557         4.54913
     2013.77138         2.48854         4.51518
     2013.77412         3.69464         4.55576
     2013.77686         3.06775         4.50027
     2013.77960        -6.43414         4.54582
     2013.78234        -5.33404         4.50524
     2013.78507        -6.84393         4.53671
     2013.78781        -4.65683         4.55327
     2013.79055        -3.38272         4.53505
     2013.79329        -1.25862         4.45555
     2013.79603        -2.05651         4.49033
     2013.79876         1.07259         4.48619
     2013.80150        -1.13730         4.61290
     2013.80424         4.91580         4.56155
     2013.80698        -1.00809         4.47460
     2013.80971         2.61301         4.63443
     2013.81245         5.15712         4.47046
     2013.81519         0.90623         4.49696
     2013.81793        -2.26467         4.49364
     2013.82067         3.21044         4.70069
     2013.82340         3.45954         4.52015
     2013.82563         6.28925         5.66716
     2013.82888         1.72775         4.66011
     2013.83076         6.73620         7.55373
     2013.83436         1.15896         4.57149
     2013.83709         3.91007         5.38061
     2013.83983         6.72417         4.54996
     2013.84257         1.18828         4.59799
     2013.84531        -4.27861         4.65017
     2013.84804        -1.07551         4.51021
     2013.85078         0.90160         4.57480
     2013.85352        -0.48830         4.51932
     2013.85626         0.47681         4.53091
     2013.85900        -5.57409         4.54085
     2013.86173        -3.03098         4.53091
     2013.86447        -5.40988         4.53671
     2013.86721        -2.07077         4.49364
     2013.86995        -1.46967         4.49447
     2013.87269         4.40444         4.53091
     2013.87542         8.14654         4.58723
     2013.87816         2.93665         4.52760
     2013.88090        10.14176         4.53754
     2013.88364         1.54886         4.74706
     2013.88637        -0.02703         4.49447
     2013.88911        -3.25993         4.48785
     2013.89185        -7.09482         4.49282
     2013.89430        -3.17294         5.13133
     2013.89738         0.95143         4.61124
     2013.90006        -3.14751         4.56155
     2013.90280        -8.73840         4.59717
     2013.90554        -2.11830         4.53837
     2013.90731        14.95306         9.06265
     2013.91102         1.46991         4.48371
     2013.91375        -8.54998         4.59551
     2013.91649         0.41613         4.51186
     2013.91843         1.44962         8.71482
     2013.92162         1.01307         5.43859
     2013.92470         1.13144         4.49282
     2013.92744        -0.74945         4.59882
     2013.93018        -4.54635         4.47708
     2013.93292        -3.96524         4.50855
     2013.93566        -3.47414         4.46714
     2013.93839        -3.07103         4.43981
     2013.94113        -2.66493         4.47460
     2013.94387        -5.97982         4.50110
     2013.94661        -0.51572         4.74044
     2013.94935        -2.83761         4.50690
     2013.95208         0.34750         4.53588
     2013.95482        -0.45240         4.75700
     2013.95756         2.22271         4.46383
     2013.96030        -1.40119         4.59468
     2013.96303        -1.90208         4.55327
     2013.96577        -1.66798         4.50607
     2013.96851         6.06213         4.56901
     2013.97125         1.37823         4.54251
     2013.97399        -3.16266         4.56238
     2013.97672        -9.60756         4.57232
     2013.97946        -5.85345         4.49696
     2013.98220        -3.17435         4.50441
     2013.98494        -6.25224         4.53340
     2013.98767        -9.38113         4.55990
     2013.99041        -8.79903         4.49116
     2013.99315        -9.66792         4.54168
     2013.99589        -3.17082         4.56404
     2013.99863        -4.98171         4.63029
     2014.00136       -19.69761         4.54996
     2014.00410        -5.06150         4.45638
     2014.00684       -10.50040         4.67336
     2014.00958        -0.53129         4.48785
     2014.01232        -5.45219         4.58723
     2014.01505        -9.55408         4.59717
     2014.01779        -8.29598         4.58557
     2014.02053        -1.39187         4.49364
     2014.02327        -5.99076         4.75949
     2014.02600         4.14934         4.66839
     2014.02874         5.83245         4.59220
     2014.03148         9.47755         4.72388
     2014.03422         3.40566         4.48785
     2014.03696        -6.05724         4.53008
     2014.03969        -2.27313         4.54168
     2014.04243        -0.96303         4.65017
     2014.04517         3.59308         4.64851
     2014.04791        -1.61282         4.48950
     2014.05065        -2.59771         4.49447
     2014.05338        -3.12560         4.51104
     2014.05612        -4.25850         4.51021
     2014.05886        -5.07939         4.66508
     2014.06160        -3.48029         4.48453
     2014.06433        -3.24418         4.60545
     2014.06707         0.14192         4.64106
     2014.06981         2.27303         4.54499
     2014.07255        -2.97187         4.51600
     2014.07529        -3.02776         4.57480
     2014.07802        -0.60866         4.54085
     2014.08076         0.23245         4.54333
     2014.08350        -0.04245         4.49696
     2014.08624        -3.14734         4.58723
     2014.08898        -0.93423         4.68992
     2014.09171        -5.73713         4.70151
     2014.09445        -6.86102         4.51683
     2014.09719        -7.12792         4.59220
     2014.09993         2.69519         4.56652
     2014.10266         1.01629         4.59882
     2014.10540         0.80040         4.53091
     2014.10814         0.74350         4.49779
     2014.11088        -1.34139         4.72884
     2014.11362         1.63171         4.55659
     2014.11635         1.18182         4.54333
     2014.11909        -3.21708         4.62615
     2014.12183         1.05003         4.67004
     2014.12457         3.38514         4.51766
     2014.12731        11.35624         4.56652
     2014.13004         6.45035         4.47708
     2014.13278         2.49445         4.71311
     2014.13552         2.98756         4.81580
     2014.13826         0.83066         4.55162
     2014.14099        -1.91623         4.54002
     2014.14373        -4.66213         4.53588
     2014.14647         1.16198         4.53091
     2014.14921         5.25508         4.57480
     2014.15195        -5.02581         4.60959
     2014.15468        -0.78571         4.57066
     2014.15742         2.23940         4.57315
     2014.16016        -0.72449         4.70069
     2014.16290        -2.42839         4.60545
     2014.16564        -5.32928         4.54582
     2014.16837        -2.31718         4.72719
     2014.17111         1.95993         4.68661
     2014.17385        -1.19397         4.90276
     2014.17659        -3.64886         4.60048
     2014.17932         5.60424         4.84976
     2014.18206        -6.26365         4.81249
     2014.18480         1.78945         4.60379
     2014.18754        -2.33444         4.55244
     2014.19028        -6.48734         4.55741
     2014.19301        -4.85023         4.56984
     2014.19575        -4.04512         4.53754
     2014.19849        -2.47002         4.68661
     2014.20123        -3.17191         4.62946
     2014.20397        -3.93981         4.56238
     2014.20670        -1.85770         4.56321
     2014.20944        -4.27160         4.54582
     2014.21218        -2.05549         4.64934
     2014.21492        -1.05139         4.72139
     2014.21765        -1.49928         4.54582
     2014.22039        -3.52218         4.56238
     2014.22313        -4.15607         4.51435
     2014.22587        -3.90397         4.56487
     2014.22861        -3.20386         4.57729
     2014.23134         1.51525         4.56238
     2014.23408        -0.56165         4.49364
     2014.23682        -0.43654         4.54499
     2014.23956        -7.48744         4.67915
     2014.24230        -3.74233         4.52843
     2014.24503        -8.18623         4.56404
     2014.24777        -1.10012         4.74375
     2014.25051        -2.73202         4.51021
     2014.25325        -6.69591         4.54830
     2014.25598        -5.87181         4.70069
     2014.25872        -1.28470         4.53422
     2014.26146        -2.65359         4.65348
     2014.26420        -8.11149         4.54996
     2014.26694        -4.88438         4.54251
     2014.26967       -14.13028         4.59882
     2014.27241       -13.64417         4.65514
     2014.27515        -8.49807         4.70483
     2014.27789        -5.74196         4.59634
     2014.28062        -4.11486         4.51435
     2014.28336        -6.78675         4.58971
     2014.28599        -7.74673         5.44190
     2014.28809        -6.80512         8.85727
     2014.29158       -10.54644         4.56652
     2014.29431        -3.10633         4.59220
     2014.29705        -4.71222         4.57729
     2014.29979        -4.12812         4.55079
     2014.30253       -10.01701         4.57232
     2014.30527        -1.50491         4.57977
     2014.30800        -3.08180         4.76197
     2014.31074        -0.11670         4.59717
     2014.31348        -3.90059         4.50607
     2014.31622        -3.63749         4.52346
     2014.31878        -5.36051         5.27129
     2014.32169       -12.82828         4.59302
     2014.32443       -14.61617         4.61704
     2014.32717        -8.50807         4.63278
     2014.32991        -2.30296         4.52429
     2014.33264        -5.50185         4.55990
     2014.33538        -3.74675         4.55741
     2014.33812        -6.49564         4.71808
     2014.34086        -1.06754         4.50358
     2014.34360        -7.89443         4.53754
     2014.34633        -1.41833         4.54002
     2014.34907        -3.94922         4.67170
     2014.35181        -3.66412         4.70483
     2014.35455        -3.39501         4.51600
     2014.35728        -6.27591         4.48288
     2014.36002        -9.19680         4.57315
     2014.36276        -8.77970         4.54416
     2014.36550        -6.40659         4.53505
     2014.36824        -6.09148         4.63692
     2014.37097       -12.01238         4.61207
     2014.37371        -4.28027         4.55162
     2014.37645        -1.38317         4.56735
     2014.37919        -1.19706         4.53091
     2014.38193        -8.60096         4.58888
     2014.38466        -9.46785         4.57895
     2014.38740        -7.29275         4.58640
     2014.39014        -5.63364         4.61704
     2014.39288        -3.29554         4.65928
     2014.39561        -0.31743         4.53505
     2014.39835        -2.68833         4.58474
     2014.40109        -4.77422         4.56238
     2014.40383        -4.07111         4.56321
     2014.40657         1.05099         4.60628
     2014.40930        -4.89190         4.60296
     2014.41204        -4.03280         4.52511
     2014.41478        -3.32169         4.54582
     2014.41752        -0.78659         4.48371
     2014.42026        -3.49148         4.61290
     2014.42299         0.01562         4.51435
     2014.42573        -5.50927         4.56238
     2014.42847        -0.34917         4.50193
     2014.43081         2.48063         5.66302
     2014.43394        -0.11996         4.59717
     2014.43668        -2.38985         4.57812
     2014.43942         0.35626         4.53919
     2014.44216        -5.77964         4.53008
     2014.44490        -0.38853         4.74210
     2014.44763         0.24557         4.66756
     2014.45037        -1.40132         4.55079
     2014.45311        -6.25022         4.59882
     2014.45585        -0.67811         4.50441
     2014.45859        -8.30001         4.59965
     2014.46132        -8.21890         4.58226
     2014.46406       -10.81280         4.67667
     2014.46680        -0.22069         4.61207
     2014.46954        -4.36058         4.54416
     2014.47227        -3.04348         4.52926
     2014.47501        -5.53237         4.56984
     2014.47775        -9.78927         4.58143
     2014.48049        -1.80216         4.55990
     2014.48323         0.34394         4.71062
     2014.48596        -4.81195         4.63526
     2014.48870        -6.44785         4.68412
     2014.49144         3.73126         4.50193
     2014.49418        -0.00364         4.48371
     2014.49652        -0.81784         5.70360
     2014.49965        -0.98943         4.53091
     2014.50239        -0.25532         4.58971
     2014.50513        -2.80621         4.54499
     2014.50787        -2.23611         4.56404
     2014.51060        -3.89200         4.48288
     2014.51334         4.12810         4.48039
     2014.51608         2.46721         4.63029
     2014.51882         6.15431         4.49447
     2014.52156         6.19042         4.55327
     2014.52429         8.06452         4.52511
     2014.52703         4.38863         4.51021
     2014.52977         1.27773         4.47046
     2014.53251        -6.39916         4.56901
     2014.53525         1.01394         4.50027
     2014.53798         4.61905         4.49861
     2014.54072         5.06916         4.61373
     2014.54346         3.33926         4.49944
     2014.54620         2.18837         4.55990
     2014.54841         7.75407         5.85515
     2014.55171         3.62361         4.58143
     2014.55441        -1.39232         4.54913
     2014.57117        -0.46343         5.17440
     2014.57357        -5.88858         4.49447
     2014.57631        -2.27447         4.49530
     2014.57905        -1.03137         4.49530
     2014.58179        -2.13026         4.56321
     2014.58453        -1.96616         4.64851
     2014.58726         2.78295         4.95908
     2014.59000         4.29005         4.52594
     2014.59274         3.55616         4.58557
     2014.59548         1.21826         4.57480
     2014.59822        -2.03963         4.71394
     2014.60095        -2.42253         4.71559
     2014.60369        -0.11442         4.58971
     2014.60643        -2.37132         4.60710
     2014.60917         3.79379         4.56155
     2014.61190         7.83190         4.68495
     2014.61464         5.83500         4.60545
     2014.61738         3.88911         4.71973
     2014.62012         5.03121         4.65431
     2014.62286         7.04732         4.64023
     2014.62559         0.78842         4.58888
     2014.62833         6.10653         4.65597
     2014.63107         5.91563         4.61042
     2014.63381         7.00474         4.76446
     2014.63655         6.35084         4.55576
     2014.63809        29.88203        61.33088
     2014.64202         8.38405         4.54748
     2014.64476        -0.06784         4.53754
     2014.64750         4.93927         4.52677
     2014.65023         2.62137         4.54002
     2014.65297         7.84948         4.56321
     2014.65571        15.61058         4.61870
     2014.65845         8.81369         4.59385
     2014.66119         4.21879         4.59634
     2014.66392         7.25890         4.55659
     2014.66666        13.40600         4.54333
     2014.66940         7.89511         4.63857
     2014.67214         4.22521         4.61042
     2014.67488         5.83732         4.51932
     2014.67761         1.93742         4.53754
     2014.68035         6.05353         4.50358
     2014.68309         2.96864         4.83899
     2014.68583         3.13874         4.57977
     2014.68856         8.50685         4.54416
     2014.69130         0.64795         4.56321
     2014.69404         2.57906         4.59220
     2014.69678         1.57316         4.56652
     2014.69952         2.86927         4.49033
     2014.70225         6.48537         4.52015
     2014.70493         3.67243         4.59965
     2014.71598         8.43793         4.62698
     2014.71868        11.45601         4.49282
     2014.72142         6.09111         4.54168
     2014.72416         7.78522         4.55493
     2014.72689        11.48732         4.61621
     2014.72963        -2.16857         4.61704
     2014.73237         5.89053         4.57812
     2014.73511         4.15064         4.53091
     2014.73785         0.33974         4.54168
     2014.74058         1.05285         4.54168
     2014.74332         1.61995         4.64520
     2014.74606         5.56106         4.54913
     2014.74851         9.22795         5.31022
     2014.75154         5.45827         4.66673
     2014.75427         1.62838         4.58309
     2014.75701         8.36648         4.70234
     2014.75975        -2.37041         4.59882
     2014.76249         8.78369         4.52926
     2014.76522         4.32480         4.91270
     2014.76716         5.31129         9.90490
     2014.77070         4.38801         4.57066
     2014.77344         4.12611         4.59717
     2014.77618        11.63022         4.74872
     2014.77891         7.55132         4.51683
     2014.78148         5.04230         4.95576
     2014.78833        12.12856        13.12979
     2014.78987         4.66975         4.61787
     2014.79260         2.75485         4.51269
     2014.79534         5.10296         4.56238
     2014.79808         0.76306         4.75535
     2014.80082         3.43517         4.65017
     2014.80355         4.72727         4.65928
     2014.80629         1.75838         4.73133
     2014.80903       -11.08852         4.67915
     2014.81177         7.21659         4.51352
     2014.81451         8.92369         4.73050
     2014.81724         5.42380         4.68744
     2014.81976         6.18373         4.96404
     2014.82373        10.60479         9.42705
     2014.82546         5.42312         4.60213
     2014.82820         0.58022         4.55741
     2014.83093       -15.55267         4.71891
     2014.83367         5.55243         4.52180
     2014.83641         1.15554         4.61870
     2014.83915         8.26464         4.61456
     2014.84109        11.62213         8.83242
     2014.84354         6.52302        11.12976
     2014.84628        17.30513        11.68463
     2014.85010         2.29106         4.66922
     2014.85284         6.61917         4.54913
     2014.85557        -4.28672         4.67998
     2014.85831         3.09538         4.62615
     2014.86105         2.25549         4.57563
     2014.86379        -1.43941         4.54665
     2014.86653        -2.99330         4.51600
     2014.86926        -3.82520         4.56238
     2014.87200        -1.17109         4.50855
     2014.87474         0.54801         4.52263
     2014.87748        -1.99788         4.52015
     2014.88021        -1.52378         4.54333
     2014.88295         1.70933         4.66673
     2014.88569        -1.86357         4.80504
     2014.88843         7.52154         4.71891
     2014.89117         6.65665         4.82574
     2014.89664         2.79586         4.65265
     2014.89918         5.49281         5.53962
     2014.90212        -4.67893         4.76694
     2014.90485        -7.80783         4.67501
     2014.90759         3.12728         4.92264
     2014.91033        -2.74562         4.54996
     2014.91244         3.94900         6.92846
     2014.91585         3.12963         5.93963
     2014.91854         4.23470         4.56570
     2014.92031        11.43706        11.73101
     2014.92282         7.12299        14.81677
     2014.92683        -8.58993         4.83733
     2014.92950        -2.24488         4.55079
     2014.93223        -9.92577         4.56901
     2014.93497        -7.16867         4.57646
     2014.93771        -2.92656         4.69903
     2014.94045       -10.87246         4.67667
     2014.94318        -7.74835         4.80338
     2014.94592        -1.61925         4.60710
     2014.94866        -4.70914         4.46135
     2014.95140        -6.81104         4.47211
     2014.95414        -5.52093         4.47542
     2014.95687        -1.61382         4.49696
     2014.95961         6.37228         4.47625
     2014.96235        -4.55561         4.45638
     2014.96509        -0.54251         4.63029
     2014.96783        -4.24040         4.57315
     2014.97056       -10.00530         4.95659
     2014.97330       -12.25319         4.51932
     2014.97604        -8.98509         4.56073
     2014.97878        -4.31198         4.55079
     2014.98151         0.48812         4.64603
     2014.98425        -4.92777         4.54168
     2014.98699         0.12133         4.50358
     2014.98973        -1.85556         4.39675
     2014.99234        -6.66855         4.65597
     2015.00199        26.97787        25.38586
     2015.00342        -5.39403         4.46631
     2015.00616        -8.62993         4.39923
     2015.00889        -6.22582         4.57646
     2015.01163        -0.56372         4.65597
     2015.01437        -8.48761         4.58640
     2015.01711        -5.41951         4.68495
     2015.01984         0.77960         4.50275
     2015.02258         1.56270         4.62284
     2015.02532        -5.00819         4.61539
     2015.02806        -0.83308         4.53257
     2015.03080        -0.67898         4.54830
     2015.03353        -5.55087         4.49199
     2015.03627         0.76223         4.45720
     2015.03901        -3.56866         4.59551
     2015.04175         5.62644         4.57812
     2015.04449        -4.71245         4.56487
     2015.04722        -4.28235         4.62118
     2015.04996        -3.91924         4.49199
     2015.05270        -2.94614         4.49447
     2015.05544        -0.91103         4.57563
     2015.05817        -1.35693         4.53588
     2015.06091        -4.09782         4.50275
     2015.06365         3.85129         4.62864
     2015.06639         1.09439         4.55907
     2015.06913        -2.73050         4.51600
     2015.07186        -5.33640         4.68578
     2015.07460        -4.96029         4.50607
     2015.07734        -9.69619         4.55410
     2015.08008        -6.91308         4.49944
     2015.08282        -2.81398         4.45306
     2015.08555        -3.54687         4.54085
     2015.08829         0.41923         4.54582
     2015.09103        -1.09466         4.46383
     2015.09377        -1.42256         4.46300
     2015.09650        -5.77245         4.51186
     2015.09924         5.98966         4.65348
     2015.10198         5.17776         4.55659
     2015.10472        -4.79313         4.59551
     2015.10746        -5.12703         4.52015
     2015.11019        -9.58092         4.59965
     2015.11293        -1.17682         4.63526
     2015.11567        -5.75571         4.59385
     2015.11841        -6.82661         4.55162
     2015.12115        -5.41850         4.58143
     2015.12388        -0.19240         4.86218
     2015.12662        -7.94729         4.53837
     2015.12936        -5.56118         4.51104
     2015.13210         0.44192         4.55824
     2015.13483        -5.84097         4.57398
     2015.13757        -3.56187         4.61373
     2015.14031       -10.57676         4.49530
     2015.14305        -2.34666         4.48785
     2015.14579        -4.30755         4.48039
     2015.14852         2.75255         4.51849
     2015.15126        -3.44034         4.49447
     2015.15400        -3.42024         4.69489
     2015.15674         0.71287         4.48868
     2015.15948         0.31397         4.49696
     2015.16221        -2.68492         4.46466
     2015.16495         0.87819         4.53257
     2015.16769        -0.41271         4.50358
     2015.16993        -0.31199         5.76820
     2015.17316        -0.27550         4.60628
     2015.17590        -6.02039         4.52843
     2015.17864        -3.87629         4.46549
     2015.18138         1.56682         4.70731
     2015.18412         2.88692         4.48371
     2015.18685         1.90803         4.44975
     2015.18959         1.59013         4.54830
     2015.19233         1.15824         4.68826
     2015.19507         1.58034         4.49116
     2015.19780        -0.93455         4.56901
     2015.20054         2.17356         4.46631
     2015.20328        -2.73534         4.41497
     2015.20602        -5.46623         4.62698
     2015.20876        -0.68713         4.48619
     2015.21149        -5.77202         4.50110
     2015.21423       -10.02092         4.65182
     2015.21697        -0.22881         4.52926
     2015.21971        -2.94471         4.45803
     2015.22245        -1.75860         4.48205
     2015.22518         1.12250         4.50607
     2015.22792        -3.98739         4.46963
     2015.23066        -2.36629         4.50607
     2015.23340         4.14782         4.55410
     2015.23613        -6.05707         4.65431
     2015.23887        -5.76697         4.74292
     2015.24161         5.51614         4.68081
     2015.24435        -5.69776         4.78433
     2015.24709        -3.22965         4.56901
     2015.24982        -3.16055         4.44975
     2015.25256        -5.29244         4.50110
     2015.25530        -6.41334         4.48039
     2015.25787        -0.63136         5.06425
     2015.26078         4.31687         4.43236
     2015.26351         0.42498         4.45803
     2015.26625         0.95008         4.43816
     2015.26899        -2.30981         4.44064
     2015.27173         6.35330         4.58226
     2015.27446        10.26640         4.58640
     2015.27720        -3.36749         4.48785
     2015.27994        -0.41439         4.52843
     2015.28268        -1.43128         4.44313
     2015.28542        -6.56418         4.60048
     2015.28815        -5.16907         4.61373
     2015.29089        -5.64697         4.64768
     2015.29363        -0.96486         4.47542
     2015.29637        -1.34576         4.43981
     2015.29911         6.45135         4.46052
     2015.30184         4.12345         4.46714
     2015.30458        -2.00544         4.47460
     2015.30732         2.16467         4.42325
     2015.31006        -2.81823         4.38433
     2015.31279        -5.95712         4.43319
     2015.31553        -4.10702         4.39426
     2015.31827        -7.97291         4.36693
     2015.32101        -2.88481         4.40503
     2015.32363        -0.24479         4.90856
     2015.32648        -2.51060         4.44644
     2015.32922        -0.68849         4.45472
     2015.33196         1.74361         4.38433
     2015.33470         2.66272         4.34457
     2015.33744        -3.02918         4.34540
     2015.34017        -5.01207         4.40255
     2015.34291        -7.78196         4.35203
     2015.34565        -0.00186         4.36776
     2015.34839         0.19025         4.31228
     2015.35112        -4.10765         4.34043
     2015.35386         1.08946         4.35782
     2015.35660        -2.94744         4.35203
     2015.35934        -4.09533         4.47294
     2015.36208        -4.13723         4.36197
     2015.36481        -2.84312         4.36859
     2015.36755         2.53698         4.35865
     2015.37029         1.79309         4.36114
     2015.37303        -5.93980         4.30317
     2015.37577        -0.83670         4.38350
     2015.37850        -4.00359         4.48122
     2015.38124        -5.19549         4.34043
     2015.38398        -3.65238         4.38433
     2015.38672        -3.09328         4.39426
     2015.38945        -1.97617         4.34043
     2015.39219        -3.89807         4.31724
     2015.39493        -3.08796         4.31062
     2015.39767        -4.13986         4.37770
     2015.40041        -3.16475         4.33132
     2015.40314        -2.33565         4.52511
     2015.40588        -5.07754         4.35782
     2015.40862        -4.03343         4.37604
     2015.41136        -1.66433         4.51600
     2015.41410        -1.74922         4.40834
     2015.41683        -1.65512         4.37936
     2015.41957        -3.68301         4.37936
     2015.42231        -0.30891         4.30648
     2015.42505         2.40120         4.51518
     2015.42778        -0.92570         4.37025
     2015.43052         0.77141         4.41414
     2015.43326        -2.76449         4.41497
     2015.43600         0.35962         4.38847
     2015.43874         7.69572         4.43319
     2015.44147         7.54383         4.60628
     2015.44421        -2.10106         4.47791
     2015.44695         3.62404         4.35203
     2015.44969         2.35415         4.37687
     2015.45243        -0.92275         4.49364
     2015.45516         0.52436         4.44975
     2015.45790        -1.08554         4.45638
     2015.46064         4.87357         4.51021
     2015.46338        -1.25433         4.54333
     2015.46611         5.63578         4.40669
     2015.46885         4.91588         4.40751
     2015.47159         4.52599         4.44395
     2015.47433        -4.53691         4.62615
     2015.47707         1.82520         4.47211
     2015.47980         0.46031         4.50938
     2015.48254        -3.24559         4.40669
     2015.48528         1.54152         4.43650
     2015.48802        -2.63538         4.44230
     2015.49076        -3.98227         4.50607
     2015.49349         6.26383         4.52180
     2015.49623         4.64694         4.47542
     2015.49897         2.98004         4.46466
     2015.50171         3.77015         4.42573
     2015.50444         3.80925         4.42325
     2015.50718         3.13536         4.42491
     2015.50992        -0.60154         4.42822
     2015.51266         3.25657         4.57812
     2015.51540        -2.01732         4.51932
     2015.51813         4.65778         4.39095
     2015.52087         9.42689         4.43733
     2015.52361         5.67599         4.51766
     2015.52635         2.85010         4.40172
     2015.52908         7.12820         4.39840
     2015.53182         5.30931         4.36776
     2015.53456         8.52741         4.43816
     2015.53730        -0.59748         4.53588
     2015.54004        11.03162         4.73299
     2015.54277         0.93673         4.51104
     2015.54551         8.58883         4.46797
     2015.54825         8.00294         4.51518
     2015.55099         8.66005         4.54002
     2015.55373        12.29315         4.52429
     2015.55646        13.28626         4.63857
     2015.55920         6.07236         4.53008
     2015.56194        11.68547         4.50607
     2015.56468         8.88357         4.47046
     2015.56741         7.38368         4.50607
     2015.57015        12.33678         4.67336
     2015.57289         4.26289         4.61539
     2015.57563         7.75099         4.52015
     2015.57837         6.74410         4.42491
     2015.58110         8.67121         4.50607
     2015.58384        10.17731         4.57729
     2015.58658        11.52442         4.57977
     2015.58932         4.11352         4.59468
     2015.59206        10.71163         4.52015
     2015.59479        10.03873         4.42739
     2015.59753        12.05484         4.60710
     2015.60027        10.06394         4.66673
     2015.60301        15.56505         4.69323
     2015.60574         8.25815         4.57895
     2015.60848        10.93426         4.52097
     2015.61122        13.38336         4.46466
     2015.61396        12.37647         4.51186
     2015.61670         9.96958         4.47294
     2015.61943         9.75568         4.47128
     2015.62217        13.86179         4.66839
     2015.62491        14.01489         4.41828
     2015.62765        16.21700         4.34292
     2015.63039        11.37610         4.38847
     2015.63312        14.26121         4.52015
     2015.63586        15.40331         4.48205
     2015.63860        13.02042         4.38515
     2015.64134        16.93352         4.43319
     2015.64407        11.99163         4.41828
     2015.64681         3.18973         4.48536
     2015.64955         7.25184         4.57812
     2015.65229         8.26195         4.47211
     2015.65503        14.17705         4.46797
     2015.65776        11.32116         4.47542
     2015.66050         3.17626         4.64934
     2015.66295        14.40415         5.00711
     2015.66598        13.71647         4.63526
     2015.66872        12.93858         4.56404
     2015.67145        12.03268         4.35948
     2015.67419         5.56879         4.34375
     2015.67693        10.89589         4.40089
     2015.67967         6.29800         4.44147
     2015.68240         9.46010         4.42822
     2015.68514         8.58221         4.49530
     2015.68788        10.20832         4.43981
     2015.69062        12.49442         4.46963
     2015.69336         8.53853         4.55493
     2015.69609        14.08263         4.41083
     2015.69883        10.94174         4.44644
     2015.70157        11.57584         4.35286
     2015.70431        11.86095         4.39675
     2015.70705         7.96005         4.35037
     2015.70978        11.55316         4.53257
     2015.71252         8.05226         4.41000
     2015.71526        10.52837         4.44727
     2015.71800         5.52947         4.42739
     2015.72073        15.84758         4.38930
     2015.72347         9.43369         4.36859
     2015.72621         6.19179         4.38515
     2015.72895         3.74590         4.48039
     2015.73169         5.78200         4.47957
     2015.73442         7.90611         4.36611
     2015.73716         9.13221         4.35286
     2015.73990         9.68632         4.51269
     2015.74264        10.56642         4.54416
     2015.74538        13.39953         4.58971
     2015.74811         4.56163         4.58391
     2015.75085         5.00774         4.37936
     2015.75359         0.72784         4.42325
     2015.75633        10.78795         4.38019
     2015.75906        11.99206         4.37439
     2015.76180         7.56416         4.53091
     2015.76419         3.94600         5.16115
     2015.76819        13.07407         8.93677
     2015.77002        13.48948         4.59220
     2015.77275         6.47258         4.66922
     2015.77549         5.73269         4.64271
     2015.77823        11.71979         4.52677
     2015.78097        12.98790         4.46963
     2015.78371        15.87100         4.44313
     2015.78644        11.77811         4.46880
     2015.78918         7.35822         4.48453
     2015.79192        11.63832         4.49779
     2015.79466         7.96443         4.53422
     2015.79739        14.20153         4.55410
     2015.80013        11.63664         4.64189
     2015.80287        -0.06426         4.58391
     2015.80561         5.97985         4.48536
     2015.80835         6.10795         4.45141
     2015.81108         3.24906         4.62367
     2015.81382         4.67516         4.54830
     2015.81656         6.89127         4.58474
     2015.81930         6.32837         4.69655
     2015.82203        12.42748         4.59137
     2015.82477         2.19859         4.62450
     2015.82751         3.70669         4.63195
     2015.82945        11.99618         8.71399
     2015.83299         3.55890         4.66342
     2015.83572         9.05301         4.54996
     2015.83837         1.56204         4.76942
     2015.84120         2.69522         4.54168
     2015.84394         0.30432         4.50855
     2015.84668         2.08043         4.61456
     2015.84941         5.50653         4.60213
     2015.85215        10.64664         4.55079
     2015.85489        11.86874         4.54665
     2015.85763         7.53085         4.47708
     2015.86036         5.30796         4.61539
     2015.86310         5.74106         4.57232
     2015.86584        11.74417         4.63029
     2015.86858         6.95327         4.58474
     2015.87132         8.68038         4.87460
     2015.87405         0.19148         4.52263
     2015.87679         9.08859         4.64768
     2015.87953        -1.74931         4.62532
     2015.88227         6.74380         4.51186
     2015.88501        -3.14410         4.47957
     2015.88774         0.81701         4.53919
     2015.89048         4.42311         4.56321
     2015.89322         6.67322         4.50772
     2015.89596         0.97233         4.51021
     2015.89869         2.72843         4.50855
     2015.90081        -1.34095         6.52349
     2015.90417         0.62664         4.48536
     2015.90691         0.03475         4.50524
     2015.90965         0.44485         4.52263
     2015.91238         0.64596         4.56155
     2015.91512         3.70706         4.47377
     2015.91780         0.64812         4.61042
     2015.92060        10.00827         4.59302
     2015.92334         1.88338         4.54002
     2015.92488        -2.81544        12.90950
     2015.92881        -2.14241         4.50193
     2015.93155         1.33870         4.65265
     2015.93429         5.17580         4.81497
     2015.93702         2.53591         4.85804
     2015.93976         1.33101         4.70648
     2015.94250         5.59712         4.64686
     2015.94524         1.88722         4.61373
     2015.94798         7.94333         4.60379
     2015.95071         6.79843         4.43484
     2015.95345         0.86754         4.43319
     2015.95619        -2.01736         4.56155
     2015.95893        -0.89825         4.70069
     2015.96167         7.51285         4.64354
     2015.96326        -3.45992        80.73322
     2015.96714         8.50807         4.80255
     2015.96988         4.87817         4.56073
     2015.97262        12.97128         4.57812
     2015.97535        13.54038         4.49364
     2015.97809         6.61649         4.52926
     2015.98083         2.56759         4.49116
     2015.98357        -6.86930         4.62284
     2015.98631        -3.48520         4.54251
     2015.98904        -0.47809         4.49116
     2015.99178        -1.03999         4.47046
     2015.99452         1.15012         4.47046
     2015.99726         0.46523         4.49116
     2016.00000        -0.98367         4.52677
     2016.00273        -1.32756         4.50524
     2016.00547        -2.47146         4.54416
     2016.00821         1.10465         4.45472
     2016.01095        -2.31425         4.52843
     2016.01368        -0.83214         4.59054
     2016.01642        -4.30404         4.60710
     2016.01916        -3.13793         4.71145
     2016.02190         1.29017         4.52346
     2016.02464        -0.55472         4.50027
     2016.02737        -4.22562         4.49364
     2016.03011        -1.62151         4.54748
     2016.03285         2.54860         4.52263
     2016.03559        -0.11230         4.55327
     2016.03833        -0.45219         4.62284
     2016.04106        -1.78809         4.49861
     2016.04380        -1.24098         4.62532
     2016.04654        -3.41488         4.50110
     2016.04928        -3.14277         4.48536
     2016.05201        -4.04167         4.43981
     2016.05475        -9.15856         4.52511
     2016.05749        -6.59246         4.60462
     2016.06023        -0.36235         4.49033
     2016.06297        -1.46825         4.42491
     2016.06570        -2.81014         4.57895
     2016.06844        -2.03803         5.19676
     2016.07118        -6.37093         4.67004
     2016.07392        -2.49082         4.63526
     2016.07666        -3.26672         4.68081
     2016.07939         4.46339         4.56818
     2016.08213        -2.21751         4.63940
     2016.08487        -1.33440         4.58143
     2016.08761        -6.79630         4.54582
     2016.09034        -7.02319         4.55659
     2016.09308        -0.36609         4.59634
     2016.09582        -8.58898         4.59468
     2016.09856        -7.67088         4.67998
     2016.10130       -12.26477         4.54333
     2016.10403        -5.39166         4.53505
     2016.10677        -9.26456         4.57066
     2016.10951        -6.93645         4.65928
     2016.11225       -11.96835         4.56652
     2016.11498        -8.27224         4.64354
     2016.11772       -14.25714         4.56984
     2016.12046        -3.55103         4.56155
     2016.12320        -1.04093         4.54168
     2016.12594        -5.53982         4.55576
     2016.12867         1.16128         4.55576
     2016.13078        -1.20809         6.41997
     2016.13415         0.48949         4.50524
     2016.13689        -5.71640         4.49282
     2016.13963        -5.57129         4.51600
     2016.14236       -14.60519         4.48371
     2016.14504       -10.80913         4.76777
     2016.14784        -8.47198         4.51352
     2016.15058        -4.24987         4.49613
     2016.15331        -6.72577         4.59302
     2016.15605        -7.21566         4.51104
     2016.15879       -10.82656         4.58474
     2016.16153        -8.55945         4.55244
     2016.16427        -8.89935         4.58309
     2016.16700        -8.20424         4.73299
     2016.16974        -8.38614         4.57066
     2016.17231        -7.09216         5.22160
     2016.17522        -6.93192         4.68826
     2016.17796         2.66418         4.60462
     2016.18069        -1.74071         4.62698
     2016.18343        -4.21761         4.69572
     2016.18617        -1.18350         4.50524
     2016.18891        -9.46940         4.54251
     2016.19164        -5.12329         4.43484
     2016.19438         0.73481         4.42656
     2016.19712        -1.58308         4.45306
     2016.19986        -5.42898         4.51352
     2016.20260       -13.64887         4.56818
     2016.20533        -8.11677         4.72636
     2016.20807        -9.03466         4.59551
     2016.21081        -7.12055         4.58640
     2016.21355        -5.98845         4.54168
     2016.21629        -7.63434         4.40420
     2016.21902        -9.28124         4.47957
     2016.22176        -4.70013         4.41083
     2016.22450       -10.73703         4.44810
     2016.22724       -10.38492         4.42408
     2016.22997        -7.42982         4.45224
     2016.23271        -9.14671         4.45141
     2016.23517        -3.18983         5.05431
     2016.23819        -6.33350         4.41911
     2016.24081        -2.12148         4.70151
     2016.24366        -4.88629         4.37687
     2016.24640         0.16282         4.39426
     2016.24914        -1.92008         4.41497
     2016.25188        -0.52497         4.41745
     2016.25462        -7.51587         4.41580
     2016.25735        -6.41276         4.53257
     2016.26009        -7.25366         4.41248
     2016.26283       -11.43155         4.47791
     2016.26540        -2.88658         4.95908
     2016.26830        -4.01734         4.40089
     2016.27104        -3.67224         4.50110
     2016.27378         4.13787         4.43319
     2016.27652        -2.73402         4.39592
     2016.27926        -2.56092         4.47294
     2016.28199        -5.76781         4.45720
     2016.28473        -3.14271         4.44644
     2016.28747        -9.00860         4.48288
     2016.29021        -7.80450         4.42077
     2016.29295        -4.53739         4.39923
     2016.29568        -4.11029         4.44810
     2016.29842         1.38582         4.55327
     2016.30116         0.40692         4.58060
     2016.30390        -8.00997         4.46052
     2016.30663        -0.27387         4.56073
     2016.30937        -4.54976         4.44478
     2016.31211        -3.21165         4.53837
     2016.31485        -4.36455         4.46549
     2016.31759        -0.54244         4.48288
     2016.32032        -1.07234         4.43402
     2016.32243        -8.85172         6.01499
     2016.32557        -8.35630         5.27047
     2016.32854         1.57298         4.45886
     2016.33128        -6.93592         4.43816
     2016.33401         0.55319         4.49116
     2016.33675        -1.44871         4.50607
     2016.33943        -2.75664         4.65431
     2016.34223        -4.74550         4.57895
     2016.34496        -0.00039         4.55990
     2016.34770        -1.56528         4.57398
     2016.35044         4.24582         4.61373
     2016.35318        -4.64907         4.50027
     2016.35592        -6.60197         4.42573
     2016.35865       -11.96786         4.43484
     2016.36139        -4.90576         4.43567
     2016.36413         5.13635         4.49613
     2016.36687         4.54545         4.44395
     2016.36961         4.31656         4.45555
     2016.37234         6.65466         4.42491
     2016.37468         2.21046         5.64563
     2016.37782        -8.21013         4.49033
     2016.38056         0.41698         4.53340
     2016.38329         5.36509         4.47046
     2016.38603         2.22819         4.41745
     2016.38826         6.79290         5.56861
     2016.39151         0.96640         4.40669
     2016.39425         1.40251         4.39592
     2016.39698        10.09661         4.41083
     2016.39972         7.13672         4.41745
     2016.40246        -6.53418         4.47957
     2016.40520         0.32593         4.44147
     2016.40794        -2.73797         4.42739
     2016.41067        -5.49386         4.38184
     2016.41335        -3.86180         4.41248
     2016.41615        -0.09865         4.45058
     2016.41889        -7.08754         4.43236
     2016.42162         3.37556         4.51104
     2016.42436        -0.52933         4.47791
     2016.42710         4.47577         4.44313
     2016.42984        -5.95612         4.54085
     2016.43258         2.51098         4.35948
     2016.43531         7.79909         4.50855
     2016.43805         9.62019         4.39426
     2016.44079        -3.69570         4.47874
     2016.44307         1.99605         5.91147
     2016.44626        -4.99249         4.78682
     2016.44900         0.18362         4.43319
     2016.45174        10.78872         4.42905
     2016.45414         8.54556         5.48993
     2016.45722         5.16193         4.38515
     2016.45995         4.25504         4.40337
     2016.46269         1.04914         4.47377
     2016.46543         0.71225         4.38433
     2016.46817         0.76335         4.40834
     2016.47091         2.93146         4.43236
     2016.47364        -5.37844         4.46714
     2016.47638         3.02467         4.45472
     2016.47912         2.62077         4.54913
     2016.48186         1.71588         4.45472
     2016.48459         4.12399         4.40834
     2016.48716         0.14296         4.65514
     2016.49007         3.92720         4.42491
     2016.49281         2.85430         4.39509
     2016.49555         5.74841         4.68081
     2016.49828         1.79451         4.44810
     2016.50102         2.35362         4.43981
     2016.50256        -5.87320        14.12442
     2016.50650         1.47983         4.52429
     2016.50924         1.51793         4.41580
     2016.51197         2.21004         4.39758
     2016.51471         4.23814         4.52926
     2016.51745        -5.15075         4.62781
     2016.51990         1.73514         4.90442
     2016.52292         0.18746         4.74044
     2016.52566         3.16057         4.41248
     2016.52840         5.45767         4.40669
     2016.53114         2.48978         4.37770
     2016.53388         3.51188         4.38930
     2016.53661         3.64699         4.47542
     2016.53935         2.63409         4.39095
     2016.54209         7.77820         4.43567
     2016.54483         6.65930         4.38764
     2016.54757        -1.55759         4.44147
     2016.55030         5.30851         4.50772
     2016.55304         3.77062         4.37770
     2016.55578         6.75473         4.69489
     2016.55852         7.54883         4.43402
     2016.56399         1.55504         4.40917
     2016.56673         2.29015         4.48702
     2016.56947         5.21625         4.51269
     2016.57221         7.67136         4.40006
     2016.57494         8.43546         4.52263
     2016.57768         5.25457         4.40006
     2016.58042         6.40167         4.39344
     2016.58316         8.51878         4.40503
     2016.58590         3.31088         4.43319
     2016.58863         2.69699         4.42408
     2016.59137         3.24810         4.41248
     2016.59411        10.97320         4.47708
     2016.59685        10.52531         4.40834
     2016.59958         1.68441         4.44064
     2016.60232         5.64752         4.43402
     2016.60506         5.00162         4.43816
     2016.60780         4.79873         4.43319
     2016.61054         4.00283         4.39675
     2016.61327         5.17494         4.45803
     2016.61601         5.58404         4.46631
     2016.61875         3.86415         4.62781
     2016.62149         3.88625         4.41994
     2016.62423         8.71736         4.52180
     2016.62656         4.09716         5.10318
     2017.46567        -7.07057         8.48542
     2017.46703         1.36147         5.90070
     2017.47016        -4.40312         4.72470
     2017.47296        -0.07097         4.40337
     2017.47570        -4.47786         4.39758
     2017.47843        -4.79376         4.38350
     2017.48117        -6.52665         4.44147
     2017.48391        -9.87655         4.59137
     2017.48619        -5.38579         5.87586
     2017.48939        -2.60234         4.43236
     2017.49212         1.25377         4.41331
     2017.49486        -5.53612         4.45306
     2017.49760        -1.71002         4.48371
     2017.50034         7.17309         4.41331
     2017.50308         1.08619         4.45555
     2017.50581        -1.17670         4.40089
     2017.50855        -0.22460         4.46300
     2017.51129        -3.20349         4.48868
     2017.51403        -0.60639         4.57066
     2017.51676         0.56472         4.46631
     2017.51950        -3.14618         4.52346
     2017.52224        -2.84807         4.49364
     2017.52498         1.10604         4.41166
     2017.52772        -2.22686         4.54582
     2017.53045        -1.49375         4.44313
     2017.53319        -3.66365         4.51269
     2017.53593        -3.68254         4.53754
     2017.53867         0.13456         4.42988
     2017.54141         9.25567         4.37025
     2017.54414         5.15577         4.38350
     2017.54688         8.00888         4.49447
     2017.54962        -3.28802         4.44810
     2017.55236         4.76009         4.44313
     2017.55509         2.77219         4.46880
     2017.55783         3.03230         4.46135
     2017.56057        -1.49659         4.45141
     2017.56331         2.58151         4.44147
     2017.56605         0.95362         4.53008
     2017.56878        -1.12828         4.49447
     2017.57152         0.37083         4.46880
     2017.57426         0.70893         4.48619
     2017.57700         0.14304         4.68661
     2017.57974        -1.72186         4.49861
     2017.58247        -1.51375         4.44561
     2017.58521        -1.32565         4.42325
     2017.58795        -2.22754         4.46135
     2017.59069         4.39356         4.50027
     2017.59342         3.30767         4.47957
     2017.59616         1.53778         4.48205
     2017.59890         5.44288         4.47128
     2017.60164         1.75599         4.42573
     2017.60438        -2.51491         4.41580
     2017.60711         3.76620         4.43484
     2017.60985        -1.45570         4.53837
     2017.61156         4.79062         8.76368
     2017.61887         5.99424         7.38727
     2017.62080         2.81272         5.78476
     2017.62354         2.74983         5.81954
     2017.62628         3.76193         4.60462
     2017.62902         5.57404         4.66342
     2017.63175         0.57715         4.68412
     2017.63449         3.35725         4.46631
     2017.63723         4.91136         4.45803
     2017.63997         2.98746         4.52263
     2017.64271        10.58457         4.52926
     2017.64544         5.15967         4.47625
     2017.64818         4.28478         4.55079
     2017.65092         5.53388         4.44147
     2017.65366         8.89699         4.43567
     2017.65639         3.28409         4.40420
     2017.65913         6.19220         4.49613
     2017.66187         7.23230         4.45555
     2017.66461        10.04241         4.60959
     2017.66735         8.82052         4.54002
     2017.67008         9.47062         4.42739
     2017.67282         7.80773         4.54333
     2017.67556         9.67083         4.38433
     2017.67830         5.49294         4.47874
     2017.68104        10.31504         4.40337
     2017.68377         6.65515         4.54002
     2017.68651         8.61125         4.66673
     2017.68925         9.63836         4.49116
     2017.69199         7.94746         4.43070
     2017.69472         4.67357         4.41662
     2017.69746         7.33567         4.52594
     2017.69935        14.15412         8.37030
     2017.70294        13.47989         4.63940
     2017.70568         2.31699         4.51683
     2017.70841         6.37010         4.42408
     2017.71115         9.79320         4.57480
     2017.71389         4.47931         4.43402
     2017.71663        11.19841         4.41911
     2017.71937        10.70152         4.41414
     2017.72210         4.25562         4.48288
     2017.72376        10.41590        10.03327
     2017.72758         9.11883         4.46631
     2017.73032         9.39294         4.43899
     2017.73305         4.87904         4.44975
     2017.73551         4.81393         5.04603
     2017.73853         4.30626         4.41580
     2017.74127         8.39836         4.41497
     2017.74401         9.77047         4.53837
     2017.74674        -0.43443         4.53008
     2017.74948         7.78368         4.45886
     2017.75222         2.60678         4.44478
     2017.75496         6.06089         4.44313
     2017.75770         4.91899         4.50690
     2017.76043         5.37910         4.46797
     2017.76317         5.94320         4.51269
     2017.76591         1.73031         4.59965
     2017.76865         4.73642         4.70069
     2017.77138         3.98052         4.45803
     2017.77412         5.91063         4.48536
     2017.77686         1.57973         4.46383
     2017.77960         5.53384         4.49613
     2017.78234         3.05494         4.44230
     2017.78507         2.76805         4.37853
     2017.78781         1.76115         4.38598
     2017.79055         3.22626         4.44810
     2017.79329         2.73636         4.54168
     2017.79603         7.73247         4.50441
     2017.79876        11.49057         4.54913
     2017.80150         2.93468         4.55907
     2017.80424         5.51179         4.44810
     2017.80698         8.70189         4.59965
     2017.80971         0.43500         4.43733
     2017.81245         0.84210         4.59054
     2017.81428        10.91451        10.22871
     2017.81793        -2.33669         4.40172
     2017.82067        -2.31558         4.49447
     2017.82340         2.28352         4.41580
     2017.82614        -0.57737         4.44064
     2017.82888        -1.90627         4.40006
     2017.83162         6.72584         4.44975
     2017.83436         2.07294         4.46880
     2017.83709         5.37505         4.63029
     2017.83983        -3.37184         4.39840
     2017.84257        -0.27974         4.37190
     2017.84531        -2.60363         4.40420
     2017.84804        -4.12853         4.40917
     2017.85078        -1.57342         4.41911
     2017.85352         1.33068         4.44147
     2017.85626         1.55679         4.56818
     2017.85900         3.31789         4.49364
     2017.86173         4.95200         4.53588
     2017.86447         1.37810         4.41414
     2017.86721         1.05621         4.56901
     2017.86995        -1.85069         4.46217
     2017.87269         5.56842         4.42988
     2017.87542         4.76953         4.37522
     2017.87816         8.81563         4.44313
     2017.88090         5.07574         4.41166
     2017.88364        -0.15416         4.43650
     2017.88637         6.38495         4.44892
     2017.88911         0.19705         4.55576
     2017.89185         4.19716         4.50275
     2017.89459         3.91726         4.54748
     2017.89733         0.61437         4.44230
     2017.90006        -0.51753         4.42739
     2017.90280         2.91958         4.92098
     2017.90554         7.35268         4.46549
     2017.90828         2.25279         4.47377
     2017.91102         3.70590         4.50607
     2017.91375        -2.26400         4.50690
     2017.91649         1.88611         4.42325
     2017.91923         5.04921         4.48868
     2017.92197         5.07132         4.41083
     2017.92470         0.06942         4.47211
     2017.92744        -3.63047         4.45389
     2017.93018        -1.32437         4.42491
     2017.93292        -4.43726         4.43733
     2017.93566        -0.51916         4.39509
     2017.93839        -0.27905         4.47542
     2017.94113         1.26005         4.50441
     2017.94387         4.69316         4.70400
     2017.94661         0.46327         4.52594
     2017.94935         4.02137         4.43816
     2017.95208         1.24948         4.54416
     2017.95482         2.66258         4.45886
     2017.95756        -1.91631         4.48122
     2017.96030         2.63579         4.44561
     2017.96303         5.62290         4.38764
     2017.96577         8.18100         4.53837
     2017.96851         5.36211         4.43567
     2017.97011        34.95834        58.41406
     2017.97399        -1.49768         4.39675
     2017.97672        -5.47357         4.38598
     2017.97946        -1.14847         4.38930
     2017.98220        -1.99236         4.39675
     2017.98494        -4.94626         4.39592
     2017.98767        -7.57115         4.55741
     2017.99041        -4.59105         4.43816
     2017.99315         4.12606         4.43070
     2017.99589         1.10116         4.46300
     2017.99863        -2.99373         4.37770
     2018.00136        -8.33263         4.40834
     2018.00410        -8.09852         4.39840
     2018.00684       -11.47442         4.41662
     2018.00958        -5.53931         4.39344
     2018.01232        -8.74920         4.52015
     2018.01505        -2.67010         4.42905
     2018.01779        -1.80399         4.38350
     2018.02053         2.15311         4.52760
     2018.02327         1.41322         4.42739
     2018.02600        -1.80568         4.42656
     2018.02874         2.16743         4.42822
     2018.03148        -2.25147         4.36611
     2018.03422        -6.94236         4.40503
     2018.03696       -11.50326         4.40503
     2018.03969        -6.21415         4.44810
     2018.04243        -9.63505         4.60793
     2018.04517        -7.90194         4.46631
     2018.04791        -8.99083         4.46797
     2018.05065        -2.88273         4.48453
     2018.05338        -2.54062         4.40917
     2018.05612        -9.87852         4.45803
     2018.05886        -7.66441         4.42656
     2018.06160        -5.84431         4.42656
     2018.06433        -4.85620         4.59468
     2018.06707         0.26190         4.65265
     2018.06981        -7.14699         4.50275
     2018.07255       -15.05289         4.59137
     2018.07529       -17.32578         4.53754
     2018.07802        -7.36468         4.55244
     2018.08076       -10.34757         4.66673
     2018.08350        -6.53346         4.47542
     2018.08624        -8.85736         4.49364
     2018.08898        -7.80525         4.62284
     2018.09171        -9.29215         4.53919
     2018.09445        -7.90204         4.54085
     2018.09719        -0.40894         4.68909
     2018.09993        -6.00283         4.57812
     2018.10266       -13.55473         4.54251
     2018.10540       -11.07562         4.57812
     2018.10814        -6.68852         4.49861
     2018.11088        -8.94841         4.55327
     2018.11362        -7.38731         4.54168
     2018.11635        -8.77820         4.47542
     2018.11909       -11.12009         4.56901
     2018.12183        -3.89499         4.55659
     2018.12457        -3.90288         4.46217
     2018.12731        -9.43478         4.50110
     2018.13004        -5.07067         4.61042
     2018.13278        -2.18357         4.57315
     2018.13552        -0.10446         4.42077
     2018.13826        -5.42536         4.46880
     2018.14099        -8.82425         4.54499
     2018.14373        -9.18615         4.47460
     2018.14647         1.99496         4.80504
     2018.14921        -2.57894         4.63278
     2018.15195         2.96317         4.50607
     2018.15468        -6.10572         4.47211
     2018.15742        -1.44162         4.53174
     2018.16016        -0.81551         4.51269
     2018.16290        -8.29441         4.64603
     2018.16564        -5.50230         4.53505
     2018.16837        -5.05520         4.41662
     2018.17111        -4.93709         4.48453
     2018.17385        -4.13499         4.53837
     2018.17659        -7.90988         4.50938
     2018.17932        -2.75978         4.47791
     2018.18206         3.11133         4.61207
     2018.18480        -8.81856         4.57315
     2018.18754        -4.13246         4.49447
     2018.19028        -9.49335         4.47128
     2018.19301        -3.55525         4.47625
     2018.19575         0.72986         4.44644
     2018.19849        -0.62104         4.47460
     2018.20123         3.38007         4.58474
     2018.20397         1.41217         4.48702
     2018.20670         3.75728         4.44561
     2018.20944        -3.52062         4.43153
     2018.21218        -4.85251         4.50524
     2018.21492       -18.98041         4.49696
     2018.21765         0.61670         4.48122
     2018.22039         2.08881         4.44147
     2018.22313        -1.22309         4.43981
     2018.22587       -10.34398         4.37108
     2018.22861       -12.22988         4.39178
     2018.23134       -10.89077         4.46383
     2018.23408        -8.94267         4.43484
     2018.23682       -11.56556         4.43899
     2018.23956        -8.47946         4.63112
     2018.24193        -5.39863         5.20587
     2018.24505        -4.00023         4.43484
     2018.24777        -3.17014         4.42739
     2018.25051        -4.67004         4.40337
     2018.25325        -9.31693         4.45141
     2018.25598        -7.41682         4.40503
     2018.25872        -6.16972         4.57646
     2018.26146        -6.48761         4.54748
     2018.26420         3.46749         4.45803
     2018.26694       -11.91540         4.36859
     2018.26967        -7.77130         4.40006
     2018.27241        -5.78119         4.52594
     2018.27515        -0.77509         4.42739
     2018.27789         5.04002         4.59882
     2018.28062        -4.35388         4.55824
     2018.28336       -10.89177         4.43070
     2018.28610        -6.30167         4.44727
     2018.28884        -1.95056         4.38019
     2018.29158         3.00655         4.57812
     2018.29431        -8.05635         4.40834
     2018.29705        -6.58924         4.35368
     2018.29979        -7.66514         4.41911
     2018.30253       -12.98503         4.44892
     2018.30527        -8.19993         4.43650
     2018.30800        -7.77182         4.37853
     2018.31074        -6.82072         4.40006
     2018.31348        -8.41261         4.35203
     2018.31622        -3.93551         4.34789
     2018.31895        -1.98040         4.56155
     2018.32169        -2.10530         4.42573
     2018.32443        -3.99419         4.36031
     2018.32717       -10.26308         4.49447
     2018.32991         0.01502         4.55493
     2018.33264         0.35813         4.38267
     2018.33487         3.93584         5.96944
     2018.33812        -6.25266         4.57729
     2018.34086        -5.04756         4.36859
     2018.34633        -2.46935         4.37108
     2018.34907        -4.03024         4.39923
     2018.35175        -0.87618         4.58226
     2018.35458         3.40700         4.46217
     2018.35728         1.85207         4.36942
     2018.36002         1.86618         4.39261
     2018.36276         0.14729         4.57812
     2018.36550         3.32139         4.40006
     2018.36824         2.74350         4.38184
     2018.37097        -2.09040         4.37108
     2018.37371        -0.73829         4.34623
     2018.37645        -5.85119         4.50772
     2018.37919         0.03692         4.40172
     2018.38193        -3.81798         4.51352
     2018.38466         3.98713         4.33298
     2018.38740         4.19323         4.37770
     2018.39014         7.57534         4.39758
     2018.39288         2.87744         4.49944
     2018.39561        -1.05045         4.42988
     2018.39835         1.84966         4.44727
     2018.40109         2.70676         4.40089
     2018.40383        -0.18113         4.49033
     2018.40657         2.44397         4.43650
     2018.40930         8.28508         4.53091
     2018.41204         8.49518         4.45472
     2018.41478        -1.10571         4.38267
     2018.41752        -3.04561         4.36197
     2018.42026         1.30750         4.68495
     2018.42299         3.85360         4.39758
     2018.42573         4.07071         4.35782
     2018.42847         0.01482         4.35037
     2018.43121         1.03892         4.39592
     2018.43394        -0.42797         4.41166
     2018.43668        -2.25487         4.38433
     2018.43942         1.14324         4.33381
     2018.44216        -0.72266         4.38350
     2018.44490         1.59445         4.38433
     2018.44763        -1.70845         4.54665
     2018.45037        -0.01434         4.34954
     2018.45311         2.45176         4.37770
     2018.45585         3.05487         4.38764
     2018.45859         3.71697         4.41083
     2018.46132        -1.21992         4.39592
     2018.46389         2.63605         4.79013
     2018.46680         3.69929         4.37108
     2018.46954         5.04740         4.40255
     2018.47227         5.53550         4.45969
     2018.47501         7.96561         4.37522
     2018.47775         3.10071         4.37025
     2018.48049         1.53982         4.37936
     2018.48323         0.32392         4.32553
     2018.48596        -0.02897         4.40255
     2018.48836        -0.99113         5.04520
     2018.49244        -2.72499         9.32435
     2018.49418         7.77034         4.44395
     2018.49692         0.34645         4.43236
     2018.49965         2.59456         4.41414
     2018.50239         1.67566         4.43402
     2018.50513         2.37477         4.35368
     2018.50787         1.32487         4.39675
     2018.51060         0.01098         4.44230
     2018.51334        -1.41092         4.41580
     2018.51882        -2.52971         4.45638
     2018.52156        -1.04860         4.38930
     2018.52429         0.68850         4.34789
     2018.52703        -1.69239         4.41083
     2018.52977         0.85871         4.43650
     2018.53251         2.32382         4.40669
     2018.53798        -0.22397         4.35700
     2018.54072         4.37414         4.41580
     2018.54346         1.66524         4.40089
     2018.54620         0.30435         4.41580
     2018.54893         2.16345         4.36197
     2018.55167        -0.40244         4.39923
     2018.55441         3.23466         4.55493
     2018.55715         4.07577         4.37356
     2018.55989        -0.88313         4.70731
     2018.56262        -0.40702         4.38764
     2018.56536         5.46308         4.38101
     2018.56810        -1.91981         4.42905
     2018.57084         0.99230         4.39426
     2018.57357         5.11640         4.46631
     2018.57631         0.20851         4.62781
     2018.57905         2.82361         4.64271
     2018.58179         6.60572         4.47128
     2018.58453         5.76482         4.51269
     2018.58726         2.86493         4.38598
     2018.59000         3.79803         4.38184
     2018.59274         7.69214         4.40586
     2018.59548        12.49324         4.44975
     2018.59822         9.70135         4.41248
     2018.60095         2.87645         4.41828
     2018.60369         2.65656         4.40172
     2018.60643         8.32367         4.39923
     2018.60917         1.03077         4.49033
     2018.61190         4.69188         4.41083
     2018.61464         4.98298         4.38433
     2018.61738         9.43709         4.39923
     2018.62012         6.28019         4.38433
     2018.62286         8.06930         4.48205
     2018.62508        -4.47699         5.43113
     2018.62758         3.96593         6.43570
     2018.64279         3.18563         7.50073
     2018.64476         6.46614         4.38847
     2018.64750         2.49725         4.34457
     2018.65023        10.65035         4.51766
     2018.65297         9.54046         4.41414
     2018.65571         7.47656         4.39840
     2018.65845         9.78567         4.43899
     2018.66119        10.28977         4.38681
     2018.66392         2.16188         4.43816
     2018.66666         4.87498         4.41911
     2018.66940         4.94209         4.44313
     2018.67214         4.08520         4.46052
     2018.67488         5.20230         4.38930
     2018.67761         9.52641         4.48702
     2018.68035         1.05851         4.55576
     2018.68309        -5.69538         4.53174
     2018.68583         7.24472         4.47046
     2018.68856         5.23483         4.46383
     2018.69125         8.55889         4.54665
     2018.70033        -2.09413         7.10817
     2018.70225         1.71935         4.48702
     2018.70499        -3.77954         4.38267
     2018.70773         4.22757         4.48205
     2018.71047        -0.80933         4.41911
     2018.71321         3.23478         4.43070
     2018.71594         4.62088         4.39675
     2018.71868        -2.42201         4.42988
     2018.72142         3.70409         4.42905
     2018.72416         0.33820         4.50441
     2018.72689         0.89330         4.52015
     2018.72963         3.21641         4.40255
     2018.73237         3.19351         4.38350
     2018.73511        -1.49838         4.41414
     2018.73785         1.40072         4.42573
     2018.74058         1.17283         4.42325
     2018.74332         6.36394         4.37025
     2018.74606         1.88904         4.40089
     2018.74880         0.16615         4.39426
     2018.75154         1.38025         4.36693
     2018.75319         2.03852         9.84858
     2018.75701         1.40446         4.48702
     2018.75975         0.24257         4.39675
     2018.76249         3.63467         4.40751
     2018.76522        -2.38322         4.51269
     2018.76796         3.18088         4.41662
     2018.77070         7.04199         4.43236
     2018.77344         4.48409         4.53754
     2018.77618         4.26920         4.36362
     2018.77891         7.01731         4.38515
     2018.78165         5.27241         4.45555
     2018.78439         4.29052         4.41083
     2018.78713         1.30362         4.39758
     2018.78987        -6.45527         4.44892
     2018.79260        -2.90217         4.36114
     2018.79534        11.73794         4.36611
     2018.79808        -0.69496         4.39095
     2018.80082         0.19715         4.47874
     2018.80355         2.31125         4.37025
     2018.80629         5.59636         4.46880
     2018.80903         1.34046         4.37190
     2018.81177         0.76157         4.68081
     2018.81391        -1.44678         6.14253
     2018.81805         7.61440         7.00134
     2018.81958         4.37658         5.66882
     2018.82272         8.12699         4.50855
     2018.82546         4.15210         4.41248
     2018.82820         0.59220         4.36114
     2018.83093         2.11931         4.46714
     2018.83367         6.27341         4.51932
     2018.83641         7.38452         4.57729
     2018.83915         4.13562         4.42905
     2018.84188        -0.40127         4.49033
     2018.84462         3.21784         4.45389
     2018.84736        -2.10606         4.39095
     2018.84999         6.57897         4.54085
     2018.85410        13.71013        19.38578
     2018.85557        -7.65774         4.47874
     2018.85831        -2.20864         4.41994
     2018.86105        -1.90453         4.40917
     2018.86379         0.56057         4.48785
     2018.86653         2.93268         4.43567
     2018.86926        -2.37622         4.48785
     2018.87200        -2.41911         4.43236
     2018.87474        -1.25001         4.47128
     2018.87748         2.58010         4.51932
     2018.88021         4.14421         4.46797
     2018.88295         3.38131         4.45803
     2018.88569        -1.32958         4.49199
     2018.88843         3.23952         4.53340
     2018.89117        -2.98137         4.52180
     2018.89390         1.76673         4.50524
     2018.89664        -4.55416         4.63195
     2018.89938         1.05194         4.48619
     2018.90212        -1.61095         4.52015
     2018.90485         6.80215         4.54996
     2018.90759         5.15126         4.52346
     2018.91033         7.47536         4.48536
     2018.91307         2.46947         4.58806
     2018.91581         3.14258         4.50275
     2018.91854         8.92968         4.45141
     2018.92128        -0.20421         4.51352
     2018.92402         0.31989         4.56570
     2018.92676         0.12000         4.43981
     2018.92950         6.61910         4.44147
     2018.93223         0.65921         4.49033
     2018.93497        -4.25969         4.58060
     2018.93771        -3.11758         4.49364
     2018.94045         5.44652         4.54416
     2018.94318        -1.57837         4.44478
     2018.94592         1.97073         4.54665
     2018.94866         2.21084         4.46797
     2018.95140         4.47095         4.58557
     2018.95282       -42.26796       126.44317
     2018.95687         1.47116         4.43733
     2018.95961         4.24226         4.45389
     2018.96235         3.70637         4.53008
     2018.96509        -2.24853         4.52346
     2018.96783       -12.24442         4.69903
     2018.97056        -2.28632         4.48619
     2018.97330        -5.59821         4.43319
     2018.97604        -2.55011         4.69737
     2018.97878        -1.49500         4.38681
     2018.98151        -5.97090         4.40751
     2018.98425        -3.26279         4.53588
     2018.98699        -5.23868         4.50855
     2018.98973        -0.03558         4.48702
     2018.99247         0.49553         4.50441
     2018.99520        -4.38837         4.52180
     2018.99794        -7.37426         4.46135
     2019.00068       -11.31516         4.51021
     2019.00342       -12.58005         4.54665
     2019.00616        -6.72995         4.45638
     2019.00889        -4.55884         4.51269
     2019.01163        -5.28874         4.46549
     2019.01437         4.10137         4.56652
     2019.01711         4.59747         4.51186
     2019.01984        -6.54542         4.44147
     2019.02258        -8.67331         4.48039
     2019.02532        -6.57821         4.56652
     2019.02806        -3.26110         4.54996
     2019.03080        -4.87500         4.53174
     2019.03353        -9.09989         4.36528
     2019.03627       -10.94379         4.41000
     2019.03901        -6.10968         4.36693
     2019.04175        -6.06658         4.37439
     2019.04449         0.04653         4.42573
     2019.04722        -3.58637         4.50441
     2019.04996        -9.17526         4.56570
     2019.05270        -7.62915         4.65182
     2019.05544        -7.30005         4.49613
     2019.05817        -6.64194         4.58640
     2019.06091        -5.50884         4.53340
     2019.06365        -4.46273         4.48619
     2019.06639        -1.94963         4.50772
     2019.06913        -4.81752         4.54913
     2019.07186        -4.81442         4.60131
     2019.07460        -4.89631         4.44975
     2019.07734        -2.50421         4.39923
     2019.08008        -1.17410         4.50524
     2019.08282        -3.59100         4.57480
     2019.08555        -4.99789         4.45058
     2019.08829        -1.07178         4.40420
     2019.09103         2.38632         4.45969
     2019.09376         0.24542         4.65348
     2019.09650         2.98253         4.47708
     2019.09924        -5.44136         4.35782
     2019.10198        -7.71626         4.41248
     2019.10472        -1.41715         4.42822
     2019.10746        -0.17905         4.31890
     2019.11019        -1.82694         4.33381
     2019.11293        -1.44184         4.43981
     2019.11567         7.71827         4.62118
     2019.11841         9.43337         4.47377
     2019.12115        12.35948         4.50938
     2019.12388         1.31959         4.52677
     2019.12662         4.29869         4.40669
     2019.12936        -3.92420         4.42822
     2019.13210        -2.24110         4.43402
     2019.13483        -6.94399         4.42491
     2019.13757        -2.19289         4.44478
     2019.14031         1.02922         4.44644
     2019.14305        -1.30868         4.43153
     2019.14579        -3.82957         4.42325
     2019.14852        -4.37847         4.42573
     2019.15126         2.85164         4.43650
     2019.15400        -5.66226         4.51683
     2019.15674        -6.35415         4.36031
     2019.15948        -4.81204         4.42077
     2019.16221        -9.26794         4.42905
     2019.16495        -2.85983         4.37025
     2019.16769       -11.24273         4.39261
     2019.17043       -12.58762         4.38350
     2019.17316        -5.06052         4.43070
     2019.17590        -5.33641         4.37108
     2019.17864         0.28969         4.40006
     2019.18138         1.82180         4.40337
     2019.18412       -11.79410         4.40834
     2019.18685        -7.49999         4.40089
     2019.18959        -4.88589         4.46880
     2019.19233        -1.97778         4.37025
     2019.19507        -0.65767         4.33795
     2019.19780       -10.49257         4.43650
     2019.20054        -8.55046         4.50690
     2019.20328       -10.95736         4.40751
     2019.20602        -7.60225         4.38433
     2019.20876        -9.37615         4.39012
     2019.21149        -8.50904         4.38681
     2019.21423        -5.08894         4.40089
     2019.21697        -6.24483         4.41248
     2019.21971       -10.26873         4.63940
     2019.22245        -5.48462         4.38930
     2019.22518        -4.07752         4.34706
     2019.22792        -4.71741         4.43484
     2019.22946       -16.06223        52.06118
     2019.23340        -4.03520         4.38019
     2019.23613       -11.24409         4.35120
     2019.23887        -4.36999         4.43816
     2019.24161        -8.59888         4.68330
     2019.24435        -8.50378         4.49282
     2019.24674        -2.76094         5.88497
     2019.24982        -6.20657         4.35368
     2019.25256        -0.50446         4.44727
     2019.25530        -7.87136         4.39509
     2019.25804        -2.75425         4.49447
     2019.26078        -3.45215         4.39840
     2019.26351        -1.11504         4.45306
     2019.26625        -5.29993         4.32139
     2019.26865        -3.06509         5.74915
     2019.27173        -3.21772         4.95908
     2019.27446        -8.29262         4.54665
     2019.27720        -4.14651         4.49447
     2019.27994         0.59859         4.36528
     2019.28268        -8.16630         4.66425
     2019.28542         0.96880         4.42988
     2019.28815         3.80191         4.42739
     2019.29089        -1.81799         4.38433
     2019.29300         5.86064         5.99180
     2019.29637        -1.43377         4.74955
     2019.29911         0.90033         4.40089
     2019.30184        -0.13756         4.43153
     2019.30458        -3.38046         4.72636
     2019.30732        -8.62235         4.44395
     2019.31006         1.73675         4.65928
     2019.31279        -6.52614         4.46631
     2019.31553         2.20596         4.41497
     2019.31827        -1.52893         4.44147
     2019.32101         1.17817         4.55576
     2019.32375       -11.82472         4.42905
     2019.32648        -2.43362         4.37604
     2019.32922        -1.91051         4.41331
     2019.33196        -3.19540         4.47957
     2019.33470        -2.79630         4.48868
     2019.33744         1.36481         4.38681
     2019.34017        -1.64909         4.64768
     2019.34291        -0.45598         4.35782
     2019.34565        -1.13988         4.46631
     2019.34839        -3.48777         4.44395
     2019.35112        -2.98867         4.40337
     2019.35369        -0.49369         4.63526
     2019.35660        -2.83946         4.41248
     2019.35934         3.68365         4.42822
     2019.36159         3.87638         5.47999
     2019.36418         4.17337         5.97855
     2019.42505         1.96218         4.41331
     2019.42778         2.83728         4.56818
     2019.43052         5.34639         4.37853
     2019.43326        -1.80651         4.34457
     2019.43611         2.38069         4.58309
     2019.43874        -4.91629         4.43981
     2019.44147        -3.26319         4.46880
     2019.44421         1.52792         4.43402
     2019.44695        -1.02898         4.55079
     2019.44969         1.42713         4.55659
     2019.45237        -2.46081         4.61373
     2019.45790         3.50344         4.46963
     2019.46064        -0.52945         5.11891
     2019.46338        -3.53635         4.74292
     2019.46611         2.99676         4.65348
     2019.46885         6.55886         4.56652
     2019.47153         2.57993         4.62864
     2019.47444        -1.29884         4.71394
     2019.47707         7.32418         6.51189
     2019.47980         6.66029         4.50275
     2019.48254         2.51139         4.47542
     2019.48528         1.14250         5.25722
     2019.48802        -4.01940         4.50772
     2019.49070        -1.92734         4.61207
     2019.49623        -1.25208         4.36611
     2019.49897         2.53602         4.48205
     2019.50171         2.01313         4.42988
     2019.50444        -1.09376         4.38350
     2019.50718        -3.99966         4.39923
     2019.50986        -4.86060         4.44313
     2019.51277         0.03664         4.59054
     2019.51540         0.63966         4.40917
     2019.51813         1.72476         4.41166
     2019.52087         0.36387         4.48536
     2019.52361         2.88597         4.53919
     2019.52635        -1.90192         4.36776
     2019.52903         0.17214         4.69820
     2019.53456        -2.40061         4.52263
     2019.53632         6.27375         8.03407
     2019.54009         3.30865         4.62698
     2019.54277        -3.36929         4.66176
     2019.54551         3.93382         4.72222
     2019.54819         4.36688         4.53505
     2019.55373        -0.13687         4.52097
     2019.55646         0.35624         4.60213
     2019.55920        -7.15066         5.15535
     2019.56194        -0.38255         4.47542
     2019.56468         1.89255         4.53505
     2019.56736         0.89662         4.53919
     2019.57289         3.04387         4.46383
     2019.57563        -1.75002         4.49364
     2019.57837         3.10408         4.47791
     2019.58110         3.25719         4.41248
     2019.58384         5.23429         4.82988
     2019.58652        -1.41865         4.47046
     2019.59206         5.98661         4.47708
     2019.59479         3.34971         4.39675
     2019.59753         7.59282         4.58226
     2019.60027         2.17692         4.59137
     2019.60301         1.49603         4.45720
     2019.60569         2.11409         4.83568
     2019.61122         1.21935         4.40503
     2019.61396         8.15645         4.59634
     2019.61670         1.24556         4.41248
     2019.61943         6.96266         4.41497
     2019.62217         6.11377         4.65017
     2019.62485         6.06083         4.50938
     2019.63039         8.18308         4.40586
     2019.63312        -1.77181         4.42242
     2019.63586         3.42829         4.61456
     2019.63860        -0.26060         4.42491
     2019.64134        -2.85750         4.62864
     2019.64402         1.44357         4.57563
     2019.64955         1.63582         4.40503
     2019.65229         3.22593         4.63526
     2019.65503         2.41203         4.49199
     2019.65776        -2.21286         4.54499
     2019.66050         2.39024         4.54333
     2019.66318        -3.30970         4.62035
     2019.66872         3.21756         4.42408
     2019.67116         1.67244         5.01788
