# ================= DQRFIT RESULTS ================
# INPUT FILE: series/WILC.rad
# OUTPUT: LDETRENDED
# FILTER FUNCTION: f(t)
# f(t)=+line(t)
# line(t)=+P 1+P 2*t
# heav(t)=(t<0?0:1)
# TOTAL OBSERVATIONS MTOT=  455
# INITIAL TIME INTERVAL= 2018.5431 - 2004.7693 = 13.7737
# TOTAL OBSERVATIONS AFTER PREFILTER M=  455
# TIME-SPAN=    0.0000 -    0.0000 =  0.0000
# OBSERVATIONS: USED M=   455 REJECTED MTOT-M=     0 %USED=  100.0000
# N=  2 PARAMETERS
# MAXSIG= 175.00000
# MAXRES=  16.78387
# SCALE FACTOR FOR LENGTHS: SCL=  10.00000
# SCALE FACTOR FOR SIGMAS: SCLSIG=   1.00000
# CHI^2=    313.193 DOF=   453 CHI^2/DOF=   0.69137
# RMS=      4.947 SDEV=      4.952 MEAN=   -0.08817
#  P #       PARAMETER +-    SIGMA %error PARAMETER NAME
# P 1 =     -1804.23820 +-  100.792   5.59 YZERO                              
# P 2 =         0.89452 +-    0.050   5.60 SLOPE                              
#       T            LDETRENDED       SIG_OBS
     2004.76934        -2.33264         5.02552
     2004.77208        -2.52009         5.09537
     2004.77482         5.22246         4.92408
     2004.77755         3.39801         4.95318
     2004.78029         1.85556         4.93406
     2004.78303         1.74811         4.98312
     2004.78577        -1.16434         4.84176
     2004.78851         3.15621         4.89913
     2004.79124         4.38876         4.84675
     2004.79398         7.23531         4.84675
     2004.79672        16.78387         4.84925
     2004.79946         6.12542         4.82181
     2004.80220         8.43497         4.84758
     2004.80493         9.08452         4.84592
     2004.80767        10.56607         4.84093
     2004.81041        -5.92038         4.72868
     2004.81315        -2.35883         4.77940
     2005.39631        -1.07448         4.95235
     2005.39905        -4.39293         4.99309
     2005.40178         5.48562         5.10202
     2005.40452         1.56617         5.11449
     2005.40726        -1.44828         5.01471
     2005.41000         2.14327         5.01721
     2005.41274         3.22083         5.01637
     2005.41547        -3.59562         4.85839
     2005.41821        -0.28007         4.90662
     2005.42095        -0.71252         4.88583
     2005.42369        -1.03797         4.87419
     2005.42643         1.92058         4.92574
     2005.42916        -1.81487         4.85839
     2005.43190         0.52068         4.86671
     2005.43464        -1.74577         4.93156
     2005.43738         5.76078         5.02220
     2005.44011        -1.46467         5.04465
     2005.44285        -0.84911         5.04215
     2005.44559        -4.96556         4.99060
     2005.44833        -1.77801         5.03550
     2005.45107         0.87454         4.90994
     2005.45354        -3.97067         5.46122
     2005.57427         6.65633         5.03217
     2005.57701         6.47488         5.05047
     2005.57974        12.72543         5.05545
     2005.58248        12.71498         5.04963
     2005.58522        10.98253         5.09952
     2005.58796        14.81808         4.86504
     2005.59070         5.57964         4.87003
     2005.59343         3.82619         4.89248
     2005.59617        14.15574         4.97646
     2005.59891         8.22029         4.91161
     2005.60165        11.09884         4.94404
     2005.60439         5.41039         4.93406
     2005.60685         2.91018         5.51444
     2006.39836        -1.03884         5.18600
     2006.40110        -4.11029         4.97729
     2006.40384        -8.78074         4.84010
     2006.40658        -1.38819         4.93738
     2006.40931       -10.75164         5.01222
     2006.41205        -8.93909         4.95401
     2006.41479       -12.30753         4.96316
     2006.41753        -9.80798         5.06793
     2006.42026        -5.10743         5.09038
     2006.42300        -4.02188         5.12031
     2006.42574        -5.70533         5.08788
     2006.42848        -6.97178         5.06959
     2006.43122        -8.36823         5.09370
     2006.43395       -11.41668         5.03966
     2006.43669        -4.43213         4.95900
     2006.43943        -7.25758         4.96399
     2006.44217        -1.44303         4.95235
     2006.44491        -1.52447         4.97563
     2006.44764         0.60608         4.99392
     2006.45038        -4.13437         4.97646
     2006.45312        -1.61582         4.95900
     2006.45586        -5.88927         4.94986
     2006.45859         2.12128         4.94487
     2006.46133        -2.74017         5.07624
     2006.46407        -3.92762         5.10368
     2006.46681        -0.66507         5.10950
     2006.46955        -2.90352         5.09703
     2006.47228         1.73304         5.12197
     2006.47502         1.01459         5.08456
     2006.47776         0.63514         5.09786
     2006.48050        -6.53331         5.12613
     2006.48324        -7.80076         5.16105
     2006.48597         0.88379         5.21760
     2006.48871        -0.79266         5.11615
     2006.49145        -8.36911         5.10618
     2006.49419         2.12744         5.03966
     2006.49692         0.82199         5.20346
     2006.49966        -2.07446         5.24420
     2006.50240         1.88310         5.08206
     2006.50514         7.08965         5.02469
     2006.50788         1.75120         5.07790
     2006.51061        -0.42525         5.17020
     2006.51335        -3.80870         5.05712
     2006.51609        -1.44515         5.14775
     2006.51883         1.30440         5.03134
     2006.52157        -8.80005         5.17852
     2006.52430         3.07950         5.15274
     2006.52704        -4.35295         5.12530
     2006.52978         3.95060         5.04797
     2006.53252         1.16916         5.04298
     2006.53525        -3.14329         5.10451
     2006.53799         2.82926         5.07042
     2006.54073        -2.64719         5.20346
     2006.54347         4.95436         4.89165
     2006.54621         2.01991         4.92657
     2006.54894        -0.17854         4.94237
     2006.55168        -3.04199         4.97729
     2006.55442        -4.86644         4.98228
     2006.55716         6.36011         5.07874
     2006.55990         4.10466         4.92075
     2006.56263        -1.55578         4.92574
     2006.56537         2.01977         4.92159
     2006.56811         2.45432         4.88916
     2006.57085        -6.50013         4.95069
     2006.57358        -1.37458         4.93988
     2006.57632         8.35597         4.95900
     2006.57906         5.86452         4.94819
     2006.58180        10.47607         4.90163
     2006.58454         3.55962         5.01887
     2006.58727        -2.32083         5.01804
     2006.59001         5.39473         5.11033
     2006.59275        -4.57972         5.15274
     2006.59549        -3.56117         5.18184
     2006.59823        -5.77462         5.08622
     2006.60096        -0.64907         4.89997
     2006.60370        -9.39552         4.92574
     2006.60644        -4.92697         4.98395
     2006.60918         0.69858         4.91078
     2006.61191        -0.95487         4.92990
     2006.61465        -4.35432         4.87502
     2006.61739         1.60123         4.95401
     2006.62013         3.06879         4.97646
     2006.62287        -7.04566         4.92741
     2006.62560        -2.84411         4.89747
     2006.62834        -3.71356         5.01804
     2006.63108        -1.03901         4.88084
     2006.63382         2.24454         4.83760
     2006.63656        -9.55091         4.96565
     2006.63929        -2.94436         4.95983
     2006.64203        -1.57381         4.92408
     2006.64477        -1.43026         4.95651
     2006.64751         1.83329         5.04465
     2006.65024         1.75585         5.15523
     2006.65298        -4.17060         5.21011
     2006.65572        -2.80105         5.31737
     2006.65846        -0.39650         5.26166
     2006.66120        -1.70595         5.25335
     2006.66393        -3.15840         5.22342
     2006.66667        -3.59785         5.24587
     2006.66941        -7.72130         5.17020
     2006.67215        -6.68875         5.21011
     2006.67488        -7.49020         5.35063
     2006.67762        -8.28065         5.39304
     2006.68036        -5.32309         5.26250
     2006.68310         4.15946         5.36560
     2006.68584         1.72601         5.42796
     2006.68857         4.52256         5.11283
     2006.69131         0.03411         5.01804
     2006.69405         0.58866         5.08871
     2006.69679        -2.13379         5.09952
     2006.69953         4.91476         5.09453
     2006.70226         4.57931         5.18600
     2006.70500         3.78586         5.11449
     2006.70774         3.87842         4.93572
     2006.71048         1.49997         5.02469
     2006.71321         4.58752         4.89331
     2006.71595        -3.21193         5.04215
     2006.71869        -1.49038         5.00307
     2006.72143         5.52417         5.14941
     2006.72417         8.11672         5.17602
     2006.72690         6.31427         5.07292
     2006.72964         4.05682         5.00224
     2006.73238         3.11837         4.90662
     2006.73512         1.10592         4.91244
     2006.73786        -0.88552         4.95568
     2006.74059         0.98003         4.94902
     2006.74333         2.59858         4.97480
     2006.74607         4.23613         4.94237
     2006.74881         3.76168         4.99891
     2006.75154         0.20723         5.12031
     2006.75428        -0.57822         5.09453
     2006.75702         1.17133         5.02136
     2006.75976         1.33488         4.98894
     2006.76250         3.13543         4.95484
     2006.76523        -1.93402         5.06377
     2006.76797        -1.77146         5.03051
     2006.77071        -2.15091         5.06626
     2007.25805        -5.97485         4.89498
     2007.26079        -3.99530         4.88583
     2007.26352        -0.91375         4.87918
     2007.26626        -1.51320         4.87835
     2007.26900         1.02936         5.06543
     2007.27174         6.52091         4.89581
     2007.27447         3.07546         4.83677
     2007.27721        10.61101         4.71787
     2007.27995         6.83356         4.72702
     2007.28269         6.46111         4.80268
     2007.28543        -1.06334         4.86504
     2007.28816         3.52521         4.78522
     2007.29090         1.46176         4.83927
     2007.29364         2.84931         4.82347
     2007.29638         4.56086         4.78938
     2007.29911         3.00142         4.86588
     2007.30185         1.98297         4.90579
     2007.30459        -8.45348         4.77025
     2007.30733         6.51207         4.78938
     2007.31007        -1.37638         4.86172
     2007.31280        -3.09183         4.92574
     2007.31554         1.36372         4.85756
     2007.31828        -1.37173         4.90412
     2007.32102        -1.09818         4.85756
     2007.32376        -5.53863         4.85507
     2007.32649        -4.54707         4.88916
     2007.32923        -0.53852         4.85257
     2007.33197        -9.31097         4.91576
     2007.33471        -3.58442         4.95235
     2007.33744         0.49213         4.78189
     2007.34018        -3.47132         4.82264
     2007.34292        -6.83577         4.88334
     2007.34566        -6.26222         4.86172
     2007.34840        -5.24367         4.89248
     2007.35113        -6.52612         4.92075
     2007.35387        -6.36757         5.24836
     2007.35661        -8.00701         5.21676
     2007.35935        -2.32646         4.85673
     2007.36209        -4.98191         4.86837
     2007.36482        -7.13736         4.92741
     2007.36756        -3.04581         4.83844
     2007.37030        -2.86426         4.86338
     2007.37304        -0.35371         4.95568
     2007.37577        -6.72316         4.94819
     2007.37851        -0.89861         4.79354
     2007.38125        -5.91506         4.83760
     2007.38399        -5.96651         4.91161
     2009.48392         1.35306         4.90828
     2009.48666        -0.89639         4.89664
     2009.48940        -4.76684         4.91161
     2009.49213         0.76471         4.90496
     2009.49487        -2.72874         4.89248
     2009.49761        -3.67919         4.86005
     2009.50035        -7.88464         4.87835
     2009.50308        -3.53509         4.89830
     2009.50582        -3.87253         4.90080
     2009.50856        -5.11098         4.84675
     2009.51130        -1.09143         4.88084
     2009.51404         1.75212         4.84675
     2009.51677        -5.85633         4.87668
     2009.51951        -3.92878         4.83095
     2009.52225        -4.65123         4.75113
     2009.52499        -2.75968         4.80767
     2009.52773        -2.70113         4.79936
     2009.53046        -0.70958         4.96399
     2009.53320        -2.24603         4.83428
     2009.53594        -3.12047         4.74448
     2009.53868        -2.40092         4.78189
     2009.54141        -3.97837         4.78273
     2009.54415        -2.21982         4.83095
     2009.54689        -8.88527         4.89747
     2009.54963        -6.12772         4.92242
     2009.55237        -0.79717         4.83428
     2009.55510         0.73538         4.86920
     2009.55784        -0.74207         4.82181
     2009.56058        -3.63452         5.09287
     2009.56332         1.68604         5.05296
     2009.56606         0.42459         5.01222
     2009.56879        -3.95186         4.85340
     2009.57153         2.17469         4.86421
     2009.57427        -2.78876         4.87336
     2009.57701         7.42179         5.04963
     2009.57974         2.31734         4.88833
     2009.58248         2.91989         4.85257
     2009.58522         1.86744         4.95401
     2009.58796        -2.10701         4.79603
     2009.59070        -1.75146         4.95817
     2012.37509        -0.64816         4.72120
     2012.37783         0.84739         4.77025
     2012.38057        -0.40906         4.76277
     2012.38330         1.16549         4.72452
     2012.38604        -1.90396         4.75944
     2012.38878        -4.51041         4.90579
     2012.39152         4.55415         4.79936
     2012.39426         1.02770         4.75030
     2012.39699         5.35425         4.82513
     2012.39973         1.20680         4.69043
     2012.40247        -0.94365         4.65135
     2012.40521         1.28490         4.71454
     2012.40794         0.79745         4.68128
     2012.41068         3.98900         4.60728
     2012.41342         3.62355         4.64886
     2012.41616         4.75810         4.70706
     2012.41890        -2.79534         4.84343
     2012.42163        -4.49279         4.71454
     2012.42437        -2.28324         4.67380
     2012.42711        -0.11569         4.69376
     2012.42985         3.85286         4.65800
     2012.43259         2.89441         4.68295
     2012.43532       -10.48604         4.84758
     2012.43806         7.66651         4.67630
     2012.44080        -1.51094         4.61809
     2012.44354        -2.80139         4.61310
     2012.44627         5.98416         4.67297
     2012.44901         1.00772         4.70956
     2012.45175         0.59527         4.70373
     2012.45449         1.85882         4.67879
     2012.45723         1.36037         4.68295
     2012.45996         0.38092         4.71953
     2012.46270         9.20747         4.78855
     2012.46544        -6.41898         4.76111
     2012.46818         3.55857         4.67048
     2012.47092         0.85112         4.67380
     2012.47365         2.23067         4.70124
     2012.47639         4.24322         4.73201
     2012.47913         6.46378         4.68711
     2012.48187         0.37433         4.73783
     2012.48435         6.13911         5.20845
     2015.54278         0.05227         5.00390
     2015.54552         5.33682         4.78772
     2015.54826         3.24837         4.80435
     2015.55100         4.81992         4.75778
     2015.55374         1.82647         4.88583
     2015.55647         4.96902         4.86338
     2015.55921         6.63357         4.80351
     2015.56195         2.37312         4.80601
     2015.56469        -0.70433         4.79686
     2015.56742         1.44122         4.84343
     2015.57016         4.13378         4.96898
     2015.57290         7.34533         5.02552
     2015.57564        -1.84712         4.80684
     2015.57838        -1.35057         4.80518
     2015.58111         0.45198         4.85839
     2015.58385        -0.19747         4.82097
     2015.58659         4.99008         4.87170
     2015.58933        -1.82237         4.90745
     2015.59206        -1.38182         4.88417
     2015.59480         3.94773         4.80185
     2015.59754         4.92229         4.88001
     2015.60028         7.65684         4.97314
     2015.60302        11.92539         4.96565
     2015.60575         2.02794         4.86005
     2015.60849         1.97649         4.81183
     2015.61123        -0.75796         4.79021
     2015.61397         0.65859         4.88500
     2015.61671         4.13414         4.82181
     2015.61944        16.09469         4.73034
     2015.62218         6.66024         4.73699
     2015.62492         5.89579         4.71371
     2015.62766         3.11535         4.72369
     2015.63039         2.23790         4.82430
     2015.63313         4.91245         4.78106
     2015.63587         2.74900         4.77607
     2015.63861         1.28955         4.70041
     2015.64135         1.16310         4.72785
     2015.64408        -4.52535         4.79104
     2015.64682        -1.55680         4.84758
     2015.64956         0.09175         4.71371
     2015.65230         1.31230         4.75030
     2015.65504         6.07585         4.74947
     2015.65777         0.41141         4.80684
     2015.66051         3.93896         4.72785
     2015.66325         8.52351         4.79769
     2015.66599         8.39706         4.82014
     2015.66872         4.73261         4.84925
     2015.67146         7.03016         4.76693
     2015.67420         6.91471         4.68877
     2015.67694        11.09326         4.83677
     2015.67968         6.20181         4.72120
     2015.68241         3.94036         4.72452
     2015.68515         1.20491         4.72036
     2015.68789         7.20147         4.73201
     2015.69063         5.14702         4.73699
     2015.69337         1.36357         4.93239
     2015.69610         1.40512         4.76610
     2015.69884         6.70467         4.73284
     2015.70158         2.75922         4.80351
     2015.70432         6.27077         4.80518
     2015.70705         0.72732         4.78938
     2015.70979         7.01687         4.80185
     2015.71253         1.37442         4.76942
     2015.71527         3.85198         4.75778
     2015.71801         8.46153         4.76277
     2015.72074         5.50608         4.77607
     2015.72348         3.20663         4.81765
     2015.72622        -5.37682         4.85091
     2015.72896        -6.26227         4.78023
     2018.35729         0.97062         5.08456
     2018.35999       -15.59579         4.84925
     2018.36274        -7.26325         5.25252
     2018.36552        -6.22373         4.86671
     2018.36825       -11.68917         4.76776
     2018.37099        -5.89763         4.85257
     2018.37372        -4.16807         5.41383
     2018.37646       -10.81852         5.81959
     2018.37920         5.03403         5.73395
     2018.38191         0.67160         5.78800
     2018.38467         1.39813         5.32569
     2018.38739        -5.90930         5.30490
     2018.39015        -1.97077         5.12447
     2018.39289        -2.92922         4.77774
     2018.39562        -4.71466         4.69958
     2018.39836        -5.40711         4.61061
     2018.40110        -8.28856         4.77524
     2018.40384        -2.56101         5.02053
     2018.40657        -1.30346         5.14359
     2018.40931        -0.15791         5.21926
     2018.41205        -2.94536         5.00889
     2018.41479        -4.34581         5.16022
     2018.41753        -7.85826         5.06543
     2018.42026        -6.49071         5.14692
     2018.42296        -5.19512         5.29991
     2018.42568         1.47745         5.95346
     2018.42848        -0.01505         5.69736
     2018.43120         3.21051         5.70402
     2018.43395        -2.87995         5.55934
     2018.43667       -11.11038         5.00972
     2018.43944         1.87714         5.38888
     2018.44212        -4.35326         5.41882
     2018.44488        -1.05573         5.62835
     2018.44766        -1.68621         6.01000
     2018.45041         7.39733         5.67907
     2018.45312         0.03791         5.17602
     2018.45581        -0.01050         5.30074
     2018.45859         3.19901         4.87170
     2018.46133       -11.80444         4.96815
     2018.46407        -6.66189         5.27164
     2018.46681        -2.56734         5.12197
     2018.46946        -3.96871         5.65912
     2018.47228         2.40076         5.91106
     2018.47502         0.78732         6.02248
     2018.47776        -0.53414         5.55767
     2018.48050        -1.45859         5.90690
     2018.48320        -6.39700         5.60091
     2018.48604         1.24146         5.88611
     2018.48872         3.99406         5.66327
     2018.49145         0.79062         5.39969
     2018.49418        -8.11882         5.22092
     2018.49701        -4.01335         5.73728
     2018.49966         1.36128         5.81959
     2018.50241        -4.69418         5.94016
     2018.50510        -0.67960         5.55767
     2018.50786        -2.83006         5.62835
     2018.51067        -6.54757         5.92602
     2018.51334        -1.97796         5.84038
     2018.51599        -5.80734         5.42962
     2018.51883         2.80313         5.82375
     2018.52157        -0.43133         6.00668
     2018.52434        -1.47780         5.98090
     2018.52705         2.40677         5.22591
     2018.52977        -7.15666         5.71399
     2018.53246        -4.54007         5.20097
     2018.53524        -2.27755         6.20374
     2018.53787        -1.29891         5.72647
     2018.54068         2.94658         5.86699
     2018.54308        -3.77557         5.71399
