# ================= DQRFIT RESULTS ================
# INPUT FILE: series/WOSB.rad
# OUTPUT: LDETRENDED
# FILTER FUNCTION: f(t)
# f(t)=+line(t)+annual(t)
# line(t)=+P 1+P 2*t
# annual(t)=+P 3*sin(2*pi*t+P 4)
# heav(t)=(t<0?0:1)
# TOTAL OBSERVATIONS MTOT= 1703
# INITIAL TIME INTERVAL= 2022.7488 - 2017.5715 =  5.1773
# TOTAL OBSERVATIONS AFTER PREFILTER M= 1671
# TIME-SPAN= 2022.7488 - 2017.5715 =  5.1773
# OBSERVATIONS: USED M=  1671 REJECTED MTOT-M=    32 %USED=   98.1210
# N=  4 PARAMETERS
# MAXSIG= 175.00000
# MAXRES=  21.99012
# SCALE FACTOR FOR LENGTHS: SCL=  10.00000
# SCALE FACTOR FOR SIGMAS: SCLSIG=   1.00000
# CHI^2=   2913.500 DOF=  1667 CHI^2/DOF=   1.74775
# RMS=      6.978 SDEV=      6.980 MEAN=    0.02975
#  P #       PARAMETER +-    SIGMA %error PARAMETER NAME
# P 1 =     -7235.54741 +-  231.416   3.20 YZERO                              
# P 2 =         3.59530 +-    0.115   3.19 SLOPE                              
# P 3 =         6.72883 +-    0.242   3.59 ANNUAL AMPLITUDE                   
# P 4 =        -2.66401 +-    0.045   1.68 ANNUAL PHASE                       
#       T            LDETRENDED       SIG_OBS
     2017.57152         2.07289         6.89965
     2017.57426        -4.00196         6.99484
     2017.57700         3.05520         6.95253
     2017.57974        -5.29564         6.97500
     2017.58247        -7.80349         6.87056
     2017.58521        -5.44633         6.89965
     2017.58795        -9.16717         6.94724
     2017.59069        -5.15802         7.04904
     2017.59342        -4.37186         6.91023
     2017.59616        -5.16170         6.89568
     2017.59890        -1.93855         6.90097
     2017.60164        -0.98739         6.85602
     2017.60438        -5.81123         6.88907
     2017.60711        -4.16208         6.92873
     2017.60985        -2.50492         7.07944
     2017.61259        -2.86377         7.13497
     2017.61533         8.48839         6.96311
     2017.61807         5.80255         7.04904
     2017.62080        -0.96630         6.91816
     2017.62354         9.57786         7.12043
     2017.62628        -0.28798         7.10060
     2017.62902         6.63117         7.22222
     2017.63175        -0.31467         6.89040
     2017.63449        -1.57751         6.95914
     2017.63723         0.55764         6.91155
     2017.63997        -7.65620         7.10192
     2017.64271         2.36896         6.96178
     2017.64544         4.98011         6.89436
     2017.64818         0.03227         7.01334
     2017.65092        -0.15957         6.90890
     2017.65366        -0.45042         6.90758
     2017.65639        -3.51626         6.86792
     2017.65913        -0.70210         6.88114
     2017.66187         3.62505         7.23677
     2017.66461         6.22721         7.03846
     2017.66735         4.70837         7.01863
     2017.67008         7.06752         6.90626
     2017.67282         4.08668         7.11117
     2017.67556         0.45784         6.85338
     2017.67830         3.77299         6.90229
     2017.68104        -3.13685         6.92477
     2017.68377         3.98931         7.23016
     2017.68651         9.80646         7.33327
     2017.68925         7.68762         6.98690
     2017.69199         5.97978         6.95385
     2017.69472         7.46893         7.09531
     2017.69746         6.57109         6.94989
     2017.70020         8.97725         6.87717
     2017.70294         3.21140         6.97236
     2017.70568        -2.34444         6.82826
     2017.70841         4.57972         6.90097
     2017.71389        10.54103         6.85602
     2017.71663        10.99719         6.89965
     2017.71937         6.33234         6.89568
     2017.72210         0.18950         6.90097
     2017.72484         0.17466         6.92080
     2017.72758         5.40481         6.91023
     2017.73032        -0.05603         6.92741
     2017.73305         9.04213         6.92741
     2017.73579         8.65028         6.87717
     2017.73853         6.51044         6.87982
     2017.74127         2.73460         6.89304
     2017.74401         8.04675         6.99748
     2017.74674         4.12491         6.97236
     2017.74948        -3.60393         6.88643
     2017.75222        -0.31078         6.89568
     2017.75496         1.23738         6.87717
     2017.75770         2.01954         7.01995
     2017.76043         0.09069         6.91948
     2017.76317         6.94985         7.15744
     2017.76591         9.74401         6.86528
     2017.76865         9.37116         6.87850
     2017.77138         7.27732         6.85602
     2017.77412         0.95148         6.94592
     2017.77686        -1.24237         6.86792
     2017.77960         2.77379         6.86528
     2017.78234        -1.25206         6.86263
     2017.78507         8.88810         6.84941
     2017.78781         8.88526         6.98690
     2017.79055         7.64541         6.98161
     2017.79329         5.94357         7.03450
     2017.79603         8.52373         6.97500
     2017.79876        12.02488         7.34253
     2017.80150         3.13004         7.26849
     2017.80424         9.54520         7.03978
     2017.80698         4.93235         7.21429
     2017.80971         6.62151         7.01334
     2017.81245         1.51567         7.03450
     2017.81519         9.38482         7.15877
     2017.81793         0.31598         6.89701
     2017.82067         1.22614         6.99616
     2017.82340         3.16029         6.84941
     2017.82614         0.08645         6.81636
     2017.82888         0.97061         6.86660
     2017.83162         4.56576         7.11250
     2017.83436         5.58892         6.91287
     2017.83709         5.20408         7.06622
     2017.83983        -6.15277         6.80711
     2017.84257        -0.11161         6.94328
     2017.84531        -1.93845         6.98558
     2017.84804        -5.97630         6.91023
     2017.85078         5.61786         6.91023
     2017.85352         4.79502         6.86660
     2017.85626         8.06517         6.99351
     2017.85900         2.53833         7.16538
     2017.86173        10.86549         7.14290
     2017.86447        10.88364         6.95253
     2017.86721         9.11080         6.88378
     2017.86995        -4.39004         6.98426
     2017.87269       -15.85289         6.98161
     2017.87542       -25.45973         6.87585
     2017.87816         6.88243         6.85999
     2017.88090       -12.14642         6.96311
     2017.88364         5.52374         6.88114
     2017.88637         4.38590         6.82694
     2017.88911        10.23605         6.94592
     2017.89185         1.22921         7.15083
     2017.89459         8.59637         7.00806
     2017.89733        -2.30848         7.01070
     2017.90006         8.57368         7.00012
     2017.90280       -10.35616         7.02524
     2017.90554        -4.69101         6.93931
     2017.90828       -13.33485         7.04375
     2017.91102       -22.27369         7.15216
     2017.91375         1.79146         7.16802
     2017.91649       -27.33738         6.97236
     2017.92744         1.87725         6.98029
     2017.93018        -3.27960         6.94724
     2017.93292        -2.08244         6.98690
     2017.93566        -2.06828         6.98822
     2017.93839         5.81087         7.03714
     2017.94113        -0.84397         7.08209
     2017.94387         5.30219         6.95253
     2017.94661        12.01634         7.11514
     2017.94935         2.80750         6.97368
     2017.95208         1.91965         7.12572
     2017.95482         5.32981         7.01731
     2017.95756         0.69497         6.96046
     2017.96030         8.46012         6.98294
     2017.96303         3.27028         6.97368
     2017.96577         7.84244         7.08738
     2017.96851         4.11859         6.90362
     2017.97125        -0.27925         6.91948
     2017.97399         1.94691         6.93006
     2017.97672        -0.40994         6.95385
     2017.97946        -0.21778         6.96178
     2017.98220        -6.01662         6.91551
     2017.98494       -12.76447         6.89965
     2017.98767       -23.10831         6.93534
     2017.99041       -19.32215         7.03714
     2017.99315        -1.52500         6.98161
     2017.99589       -19.91984         6.93006
     2017.99863       -19.37768         6.91816
     2018.00136        -8.28153         6.99219
     2018.00410        -9.30737         6.96707
     2018.00684        -2.62821         6.98558
     2018.00958        -1.42406         6.92212
     2018.01232         0.50310         6.94856
     2018.01505       -19.26674         6.99748
     2018.01779        -5.63959         7.00145
     2018.02053         5.78057         6.99880
     2018.02327        -8.04727         6.99087
     2018.02600       -12.53412         6.94195
     2018.02874       -12.32996         6.88907
     2018.03148       -20.95480         6.93138
     2018.03422        -5.54065         7.07151
     2018.03696        -2.65449         6.99484
     2018.03969        -3.39833         7.03714
     2018.04243        -5.22418         7.00673
     2018.04791       -11.46086         7.00673
     2018.05065       -22.98271         6.98029
     2018.05338       -30.28355         7.01599
     2018.05612       -29.99639         6.96707
     2018.06707        -9.98777         7.11778
     2018.06981       -34.11861         7.11911
     2018.07255       -13.40145         7.05565
     2018.07529       -13.14330         7.09002
     2018.07802        -7.71514         7.15612
     2018.08076        -5.66398         7.10721
     2018.08350       -20.58083         7.03317
     2018.08624       -24.36967         7.07019
     2018.08898        -4.49151         7.26849
     2018.09171        -3.01436         7.22090
     2018.09445        -1.97620         7.16405
     2018.09719         3.53496         7.37426
     2018.09993         5.46411         7.12968
     2018.10266        -6.49773         7.14422
     2018.10540        -5.01757         7.34782
     2018.10814        -5.81542         7.07416
     2018.11088        -8.36026         7.09531
     2018.11362        -6.39810         7.12968
     2018.11635        -9.37495         7.06094
     2018.11909        -7.80279         7.18785
     2018.12183       -20.52964         7.21694
     2018.12457       -14.35848         7.06622
     2018.12731       -22.64332         7.10456
     2018.13004        -4.49417         7.10985
     2018.13278        -0.89801         7.02260
     2018.13552        -5.13185         7.02392
     2018.13826        -8.00570         7.08605
     2018.14099        -8.19754         7.12572
     2018.14373       -10.55038         7.11778
     2018.14647        -3.51123         7.40466
     2018.14921        -5.19207         7.15216
     2018.15195        -6.34991         7.09002
     2018.15468        -9.53976         7.11646
     2018.15742        -1.39260         7.11911
     2018.16016         0.41456         7.08473
     2018.16290       -22.42829         7.18521
     2018.16564       -10.18613         7.15877
     2018.16837        -9.21497         7.05036
     2018.17111        -3.20382         7.07283
     2018.17385        -5.00066         7.11117
     2018.17659        -4.89350         7.09134
     2018.17932        -5.51735         7.06226
     2018.18206        -5.73919         7.11514
     2018.18480        -7.25703         7.11117
     2018.18754        -4.71788         7.03185
     2018.19028        -4.55472         7.04904
     2018.19301        -5.19556         7.00541
     2018.19575         2.74659         6.94592
     2018.19849         1.51675         6.98955
     2018.20123         6.11991         7.10060
     2018.20397        -0.65694         6.99616
     2018.20670        -1.67978         7.00806
     2018.20944        -5.20162         6.96443
     2018.21218        -5.05447         6.91551
     2018.21492       -15.63831         6.94460
     2018.21765        -2.88815         6.98690
     2018.22039       -12.31500         7.00673
     2018.22313        -3.39584         6.98426
     2018.22587       -10.16768         6.93534
     2018.22861        -8.56753         6.91551
     2018.23134       -15.00037         6.91816
     2018.23408        -5.03821         7.04375
     2018.23682        -6.24306         6.97368
     2018.23956        -0.59390         6.98029
     2018.24230        -2.39274         6.94328
     2018.24503        -8.40859         6.94856
     2018.24777        -7.23743         6.94592
     2018.25051        -3.70827         6.96839
     2018.25325        -9.22412         6.97633
     2018.25598        -5.20596         6.91155
     2018.25872       -11.02280         7.17463
     2018.26146        -2.06165         7.21826
     2018.26420        -2.13749         7.10456
     2018.26694        -3.60233         6.94460
     2018.26967        -6.42618         6.97633
     2018.27241       -10.80202         6.93931
     2018.27515       -13.62386         7.09002
     2018.27789         2.97029         7.14026
     2018.28062        -7.81055         7.23677
     2018.28336        -4.16439         7.03978
     2018.28610        -2.85424         6.90890
     2018.28884        -3.33208         6.91023
     2018.29158        -2.41993         7.09002
     2018.29431        -7.29377         7.04111
     2018.29705        -5.48861         6.92080
     2018.29979        -1.90946         6.97368
     2018.30253       -16.53530         7.00277
     2018.30527       -11.17414         6.89965
     2018.30800        -8.83699         6.88907
     2018.31074        -9.33683         6.88775
     2018.31348       -10.00567         6.88246
     2018.31622        -8.38052         6.90890
     2018.31895        -1.95036         7.10853
     2018.32169        -1.90420         6.91684
     2018.32443        -5.76805         6.91287
     2018.32717       -11.67289         6.93931
     2018.32991        -3.90173         7.15083
     2018.33264        -6.51958         6.93534
     2018.33538        -4.91742         7.12704
     2018.33812         1.39174         7.25131
     2018.34086         5.28789         6.94592
     2018.34360        -3.96695         6.92609
     2018.34633        -5.78279         6.92212
     2018.34907        -1.14464         6.96839
     2018.35181         8.23952         6.93006
     2018.35455         2.59968         6.90626
     2018.36550        -4.13470         6.91419
     2018.36824        -1.33354         6.96311
     2018.37097        -3.58638         6.89701
     2018.37371        -2.79623         6.89701
     2018.37645        -6.16107         7.03582
     2018.37919        -2.43891         6.91023
     2018.38193         6.28524         6.93006
     2018.38466        11.84140         6.87982
     2018.38740         1.31456         6.96046
     2018.39014         4.50671         6.89304
     2018.39288         2.95187         6.96443
     2018.39561        -1.28997         6.92477
     2018.39835         6.04918         6.89436
     2018.40109        12.96034         6.95121
     2018.40383        13.36850         7.01995
     2018.40657         1.32065         6.93931
     2018.40930        12.08681         7.06622
     2018.41204         3.17797         6.85338
     2018.41478         1.81812         6.90229
     2018.42299         2.67259         6.90626
     2018.42573         8.93975         6.87321
     2018.42847        13.26891         6.87321
     2018.43121        13.78706         6.93931
     2018.43668         2.02238         6.89701
     2018.43942         6.17053         6.90494
     2018.44216         6.59169         6.85734
     2018.44490         2.21885         6.91419
     2018.44763         4.55100         7.11250
     2018.45311         5.89331         6.90758
     2018.45585         1.29047         6.91551
     2018.45859         1.07463         6.90362
     2018.46132        -4.23722         6.92345
     2018.46406         2.41494         6.94460
     2018.46680         4.80810         6.95782
     2018.46954         3.16925         7.05300
     2018.47227         5.22941         7.03450
     2018.47501        10.57957         6.92212
     2018.47775        10.10172         7.03978
     2018.48049         3.12488         6.91948
     2018.48323         6.09104         6.90626
     2018.48596        -0.90281         6.91419
     2018.48870         3.74135         6.86924
     2018.49144         4.99551         6.86395
     2018.49418        11.13266         7.09531
     2018.49692        10.37282         7.02128
     2018.49965         9.22198         6.99219
     2018.50239         3.12413         6.90758
     2018.50513        -4.24371         6.90362
     2018.51334         4.72776         6.94063
     2018.51608         4.05092         6.91684
     2018.51882         5.26207         6.99351
     2018.52156         4.63323         6.93270
     2018.52429         2.01339         6.89701
     2018.52703         2.18354         6.93402
     2018.52977         3.12170         6.94328
     2018.53251         1.01486         6.92609
     2018.53525         2.55301         6.88907
     2018.53798         0.05117         6.90362
     2018.54072         6.90233         6.91023
     2018.54346         8.58648         6.96046
     2018.54620         5.98064         6.90229
     2018.54893         7.20580         6.90097
     2018.55167        -1.73005         6.98029
     2018.55441         2.38811         6.86792
     2018.55715         3.85527         6.91684
     2018.55989         0.84842         7.14687
     2018.56262         8.27058         6.94195
     2018.56536         0.58474         6.90097
     2018.56810         1.94689         6.96443
     2018.57084         0.45105         6.90494
     2018.57357         7.93221         7.14687
     2018.57631        -0.01764         7.20107
     2018.57905         9.66452         7.34253
     2018.58179         8.72568         7.08605
     2018.58453        11.60483         7.05565
     2018.58726         9.40999         6.95914
     2018.59000         9.01515         6.89701
     2018.59274         5.10330         6.86924
     2018.59548         8.72646         6.96311
     2018.59822         4.36262         6.91816
     2018.60095         6.18177         6.91816
     2018.60369         9.85393         6.91816
     2018.60643         9.20409         6.96575
     2018.60917        12.20524         7.05036
     2018.61190        10.70640         6.89304
     2018.61464        10.21656         6.91155
     2018.61738         7.88571         6.84941
     2018.62012        12.97687         6.96046
     2018.62286         7.34902         7.17595
     2018.62559         3.71118         7.06622
     2018.62833         1.79834         6.90362
     2018.63107         5.16249         6.86528
     2018.63381         6.04465         7.07151
     2018.63655         4.36281         6.86660
     2018.63928         4.10196         7.22751
     2018.64202         4.80812         7.25660
     2018.64476        11.51428         6.86660
     2018.64750         8.20043         6.91816
     2018.65023         8.56059         7.42317
     2018.65297        15.55475         6.95650
     2018.65571         5.23590         6.94989
     2018.65845        17.73706         7.01334
     2018.66119        15.65222         6.91023
     2018.66392        15.38037         6.96178
     2018.66666         8.82153         6.90362
     2018.66940         4.90969         6.89436
     2018.67214        14.10984         6.92609
     2018.67488         7.11000         6.96707
     2018.67761         4.03016         6.96707
     2018.68035         8.67831         7.04243
     2018.68309         4.88947         7.35707
     2018.68583         9.83463         7.05829
     2018.68856        14.24878         7.12043
     2018.69130        16.57394         7.02260
     2018.69404         9.89910         7.20768
     2018.69678        12.07125         6.93931
     2018.69952         7.30741         6.93931
     2018.70225         7.81957         7.09399
     2018.70499         4.11972         6.90890
     2018.70773         7.83688         6.91023
     2018.71047         7.42904         6.91948
     2018.71321         1.54919         6.90890
     2018.71594         4.79635         6.91155
     2018.94318        -7.35065         6.89833
     2018.94592        -3.03749         6.86660
     2018.94866        -1.07834         7.04375
     2018.95140         9.18882         7.07944
     2018.95414        11.95898         6.86792
     2018.95687         4.16313         6.89172
     2018.95961         5.80629         6.98161
     2018.96235       -13.80856         6.99616
     2018.96509         6.65760         6.90758
     2018.96783         3.48676         6.98294
     2018.97056         6.18591         6.93667
     2018.97330         5.09707         6.95253
     2018.97604       -15.97077         6.97765
     2018.97878       -27.11262         6.88907
     2018.98425       -14.67330         7.18785
     2018.98699        -1.93015         7.14158
     2018.98973        -5.38399         7.04111
     2018.99247         9.48217         7.12836
     2018.99520        -4.22668         7.03582
     2019.00068        -9.74336         7.01467
     2019.00342        -3.62321         7.16405
     2019.00616         1.05895         7.10985
     2019.00889        -4.11589         7.14555
     2019.01163         3.84226         7.00806
     2019.01437       -15.97058         6.98822
     2019.01711       -15.43142         7.00541
     2019.01984       -25.66527         6.99748
     2019.06365        -0.24776         7.05168
     2019.06639         1.75540         7.10853
     2019.06913         3.77255         7.09266
     2019.07186         4.68271         7.16934
     2019.07460        -6.50413         6.92873
     2019.07734        -1.55998         6.91551
     2019.08008        -3.54282         6.93534
     2019.08282        -0.13166         7.21165
     2019.08555        -6.61851         6.97104
     2019.08829         1.69665         6.90890
     2019.09103         2.53481         6.90890
     2019.09377         4.16496         6.91023
     2019.09650         5.00712         6.90890
     2019.09924         1.08328         6.90758
     2019.10198        -5.69557         6.91023
     2019.10472         0.86759         6.89965
     2019.10746        -4.91925         6.92609
     2019.11019        -5.15810         6.92080
     2019.11293         1.62406         7.02789
     2019.11567         1.46922         7.24999
     2019.12115        13.49553         7.03450
     2019.12388        -6.19331         7.03714
     2019.12662       -14.22916         6.96443
     2019.12936       -23.01000         6.93667
     2019.13210        -8.45585         6.93799
     2019.13483       -14.55069         6.90494
     2019.13757        -7.73953         6.93138
     2019.14031        -1.53538         6.93534
     2019.14305        -8.63922         6.95914
     2019.14579        -2.96806         6.96178
     2019.14852        -7.45591         6.94989
     2019.15126        -1.82375         6.91551
     2019.15400        -8.63059         6.94856
     2019.15674        -3.93544         6.98029
     2019.15948        -3.07428         6.97633
     2019.16221        -5.52212         7.10853
     2019.16495        -2.85797         6.85999
     2019.16769        -7.53781         6.88246
     2019.17043        -6.37165         6.91155
     2019.17316        -3.76750         6.91816
     2019.17590        -4.62134         6.89172
     2019.17864        -0.61618         6.89172
     2019.18138        -3.05003         6.88246
     2019.18412       -12.42687         6.92345
     2019.18685        -5.79971         6.92873
     2019.18959        -3.26256         6.96178
     2019.19233        -8.12440         6.86528
     2019.19507        -4.96524         6.88907
     2019.19780        -7.80809         6.94724
     2019.20054        -4.19493         7.14158
     2019.20328       -10.79677         6.94063
     2019.20602       -11.28162         6.90494
     2019.20876       -10.36046         6.88511
     2019.21149        -9.19830         6.89040
     2019.21423        -4.27715         6.93799
     2019.21697        -0.22799         6.94195
     2019.21971        -8.90183         7.12572
     2019.22245        -4.63768         6.91816
     2019.22518        -5.50952         6.86792
     2019.22792        -1.52736         6.88378
     2019.23066        -3.88721         6.93667
     2019.23340        -4.52705         6.89304
     2019.23613        -9.91989         6.85470
     2019.23887        -8.78574         6.84941
     2019.24161        -7.97958         7.10456
     2019.24435        -6.11342         7.04111
     2019.24709        -3.39727         7.02524
     2019.24982        -4.08011         6.88907
     2019.25256         2.96705         7.05697
     2019.25530         3.35120         6.87850
     2019.25804         0.14036         6.94063
     2019.26078       -16.83748         7.01070
     2019.26351       -13.62433         7.08209
     2019.26625        -3.01117         6.87585
     2019.26899        -3.18701         6.97500
     2019.27173        -3.33686         7.17860
     2019.27446        -2.14070         6.86263
     2019.27720         6.96246         7.05697
     2019.27994        -4.90639         6.95914
     2019.28268        -2.54023         6.91816
     2019.28542        -1.29407         6.90362
     2019.29089         4.78524         6.90626
     2019.29363         5.43139         6.91684
     2019.29637         0.93755         7.03582
     2019.29911         2.59971         6.90758
     2019.30184        -2.08414         6.88907
     2019.30458        -1.65598         6.91816
     2019.30732         0.56018         6.87189
     2019.31006         2.43533         6.94724
     2019.31279        -6.51951         7.00806
     2019.31553         0.99565         6.91419
     2019.31827        -3.20820         6.88511
     2019.32101        -5.37704         6.86924
     2019.32375       -12.84188         6.95253
     2019.32648        -7.47673         6.91023
     2019.36481         3.71747         6.88907
     2019.36755         3.13162         6.93799
     2019.37029         6.58378         6.93931
     2019.37303         7.15094         6.96311
     2019.37577         7.22509         7.07944
     2019.37850         3.90525         6.90758
     2019.39219         6.19903         6.99219
     2019.39493         0.82919         6.89436
     2019.39767        -0.74865         6.86528
     2019.40041         2.17650         6.92212
     2019.40314         4.48966         6.89965
     2019.40588         2.85582         6.91155
     2019.40862        -0.55803         6.91948
     2019.41136         2.39213         6.92477
     2019.41410         0.84529         6.90890
     2019.41683         6.43044         6.98558
     2019.41957         7.69360         6.94724
     2019.42231         1.39876         6.92873
     2019.42505         7.93091         7.03582
     2019.42778         6.45207         7.14290
     2019.43052        12.98323         6.94195
     2019.43326         3.19938         6.93931
     2019.43600         2.61254         6.97633
     2019.43874         4.69370         7.04507
     2019.44147        -3.70615         7.03846
     2019.44421        -0.28499         7.04772
     2019.44695         2.38917         7.07812
     2019.44969         1.60532         6.98161
     2019.45243         2.50848         7.03714
     2019.45516        -0.23936         7.12043
     2019.45790         3.00579         7.12043
     2019.46064         1.22795         7.08605
     2019.46338         5.25410         7.35707
     2019.46611         9.68426         7.30948
     2019.46885         7.33342         7.16538
     2019.47159         5.76457         7.10853
     2019.47433         5.72373         7.07151
     2019.47707        14.32589         7.08473
     2019.47980         4.15704         7.01599
     2019.48254         1.84520         7.06755
     2019.48528         5.54036         7.09928
     2019.48802         2.83951         7.06226
     2019.49076         0.79067         6.91551
     2019.49349         4.00183         6.95121
     2019.49623         1.33998         6.86792
     2019.49897         2.92114         6.95914
     2019.50171         8.38730         6.90758
     2019.50718        -3.68439         6.96046
     2019.50992         7.06677         6.92609
     2019.51266         0.99292         6.95121
     2019.51540         3.78008         6.94195
     2019.51813         3.32424         6.97633
     2019.52087         6.02739         7.01863
     2019.52361         7.64655         6.96839
     2019.52635         2.72671         6.94195
     2019.52908         0.89986         7.21429
     2019.53182         4.05802         7.12307
     2019.53456         0.45818         7.09399
     2019.53730         4.03633         7.13497
     2019.54004         8.57949         7.24338
     2019.54277        16.18965         7.17860
     2019.54551        11.96680         7.31344
     2019.54825         4.79496         6.90097
     2019.55099         3.96612         7.03053
     2019.55373         7.50027         7.14687
     2019.55646        10.31743         7.22883
     2019.55920        -1.31641         7.27246
     2019.56194         8.99674         7.06622
     2019.56468         0.04490         7.14555
     2019.56741         7.24306         7.03450
     2019.57015         1.01621         6.93799
     2019.57289         1.47337         7.06094
     2019.57563         9.95653         7.00938
     2019.57837         9.74168         7.09399
     2019.58110         5.62484         6.87982
     2019.58384         4.58000         7.30154
     2019.58658         0.36215         6.89701
     2019.58932         5.50031         6.94063
     2019.59206         7.19747         7.03846
     2019.59479         2.90562         6.91155
     2019.59753         2.88478         7.17331
     2019.60027         3.95794         7.16405
     2019.60301         7.02509         6.92212
     2019.60574        13.19925         7.22883
     2019.60848         2.29641         7.21561
     2019.61122        -0.33944         7.01070
     2019.61396         7.42972         7.10060
     2019.61670         5.70888         6.97633
     2019.61943         3.63503         7.01599
     2019.62217         7.37719         7.18785
     2019.62491        11.21335         6.96311
     2019.62765         8.85850         6.95385
     2019.63039        14.62666         6.98426
     2019.63312         5.67581         6.99880
     2019.63586        19.73597         7.33460
     2019.63860         8.68613         6.99219
     2019.64134         3.87628         7.24734
     2019.64407         7.37844         6.98690
     2019.64681         8.90560         6.99484
     2019.64955         1.39875         6.97765
     2019.65229         4.19191         7.00938
     2019.65503         4.26507         7.09531
     2019.65776        -0.38878         7.03582
     2019.66050         2.35738         7.06622
     2019.66324         7.75454         7.10060
     2019.66598         7.37069         7.05168
     2019.66872        13.10685         6.96443
     2019.67145         1.93701         6.93667
     2019.67419         4.77116         6.97897
     2019.67693         1.44332         7.13894
     2019.67967         1.31548         7.23941
     2019.68240         1.61663         7.01863
     2019.68514         2.25679         7.00409
     2019.68788        11.47095         7.02921
     2019.69062         6.94710         7.01202
     2019.69336         5.22626         6.96575
     2019.69609        15.38242         7.05565
     2019.69883        12.98557         7.08738
     2019.70157        17.02873         7.17066
     2019.70431        12.99989         6.93006
     2019.70705         7.08604         6.92080
     2019.70978         2.70520         7.03450
     2019.71252         3.04936         6.89436
     2019.71526         5.26051         6.97368
     2019.71800         4.87067         7.17066
     2019.72073         9.98983         7.27510
     2019.72347         6.62798         7.14026
     2019.72621         6.94214         6.99351
     2019.72895         9.39330         6.95385
     2019.73169         9.96345         6.93138
     2019.73442         9.22961         6.96046
     2019.73716         8.44277         6.96046
     2019.73990         6.36492         7.14422
     2019.74264         3.96308         6.98822
     2019.74538         2.83124         6.89304
     2019.74811         3.96539         7.06755
     2019.75085         5.73455         7.09134
     2019.75359         9.58471         7.24602
     2019.75633         6.99186         7.00938
     2019.75906         5.95302         6.89304
     2019.76180         7.70218         6.98690
     2019.76454        14.95533         7.18917
     2019.76728         2.28649         6.96839
     2019.77002        -1.59335         6.93006
     2019.77275         2.41280         7.15744
     2019.77549         1.45496         7.07548
     2019.77823         8.82912         6.95914
     2019.78097         5.46027         6.89965
     2019.78371         4.24543         6.94328
     2019.78644         8.58659         6.93402
     2019.78918        12.28874         6.92345
     2019.79192        12.09590         7.02524
     2019.79466        13.50306         6.99087
     2019.79739        15.76721         6.90229
     2019.80013         9.90437         6.99616
     2019.80287         9.25052         6.96443
     2019.80561        17.74968         6.97236
     2019.80835         8.27884         6.96046
     2019.81108         8.63899         7.09002
     2019.81382        15.88815         7.20504
     2019.81656         8.63831         6.91684
     2019.81930         2.77046         6.89965
     2019.82203         2.26062         6.93006
     2019.82477        -0.03422         6.94989
     2019.82751        -1.94507         6.92609
     2019.83025         7.92209         7.10721
     2019.83299         6.35325         7.06887
     2019.83572         3.11340         6.94856
     2019.83846        14.12156         6.96311
     2019.84120        13.99872         6.96972
     2019.84394         7.29187         7.13761
     2019.84668         2.01803         6.90890
     2019.84941         3.53919         6.91287
     2019.85215         6.78834         6.99351
     2019.85489        10.33050         6.91816
     2019.85763        13.10366         6.94724
     2019.86036         2.72581         6.87189
     2019.86310         9.26497         6.96575
     2019.86584        17.38213         7.05300
     2019.86858         8.87228         6.97104
     2019.87132        16.59744         7.07151
     2019.87405        17.70760         6.96839
     2019.87679        10.12175         7.24602
     2019.87953        18.63591         6.93138
     2019.88227        17.00207         6.88643
     2019.88501         8.88422         7.00938
     2019.88774         8.55338         7.23677
     2019.89048        10.51654         6.98558
     2019.89322        23.28069         6.91816
     2019.89596         5.64785         6.92212
     2019.89869        -2.77199         6.91419
     2019.90143        -1.86484         6.87717
     2019.90417        -6.57668         7.07416
     2019.90691        -0.65452         7.01202
     2019.90965        -3.78537         6.87982
     2019.91238         2.13579         6.87585
     2019.91512         7.06195         6.92609
     2019.91786        11.14710         6.97633
     2019.92060        15.68126         7.07019
     2019.92334        13.19042         6.99484
     2019.92607         7.60057         7.01202
     2019.92881        11.34373         7.01070
     2019.93155        11.94589         7.00277
     2019.93429        14.20804         6.98822
     2019.93702         6.35820         7.00541
     2019.93976         8.68736         7.12572
     2019.94250         4.69951         7.01995
     2019.94524       -16.49133         7.05829
     2019.94798         1.69483         6.98029
     2019.95071         3.47598         7.26056
     2019.95619         4.92130         7.01467
     2019.95893         5.55445         7.01863
     2019.96167         9.62861         7.03978
     2019.96440       -16.61424         7.21561
     2019.96714       -25.66208         7.26585
     2019.96988        -0.42692         6.99748
     2019.97262        -7.78877         6.99484
     2019.97535        -9.48361         6.95253
     2019.97809       -10.13945         6.98426
     2019.98083        -3.44130         7.00806
     2019.98357        -5.59614         6.96046
     2019.98631       -17.04598         6.97765
     2019.98904        -7.49483         7.03185
     2019.99178         5.18333         6.94989
     2019.99452         3.48549         6.88378
     2020.00000        15.80380         6.94195
     2020.00273         6.32096         6.86528
     2020.00547         8.99511         7.06887
     2020.00821        -3.41973         7.06622
     2020.01095       -23.85457         7.07019
     2020.01642         6.01974         7.12968
     2020.01916         6.11490         6.92080
     2020.02190        -1.07995         6.99087
     2020.02464         0.89121         7.03450
     2020.02737         7.40737         6.89304
     2020.03011        -3.68648         6.93799
     2020.03285       -12.30132         6.90362
     2020.03559        -8.80416         6.75687
     2020.03833        -7.23601         6.76745
     2020.04106       -28.69785         6.96972
     2020.04654       -14.76154         6.92873
     2020.04928       -14.02038         7.04639
     2020.05201         1.17078         6.86395
     2020.05475       -14.68607         6.85867
     2020.05749       -31.17591         6.85338
     2020.06023        -0.36775         6.91684
     2020.06297         2.21540         6.92741
     2020.06844         2.10372         6.86395
     2020.07118       -18.39413         6.84280
     2020.07392       -14.60397         6.83487
     2020.07666       -15.89281         6.91419
     2020.07939        -3.77566         6.80843
     2020.08213        -3.51750         6.90626
     2020.08487        -0.30834         6.85338
     2020.08761       -16.84619         6.80050
     2020.09034       -35.59303         6.77141
     2020.09308       -36.45287         6.87056
     2020.09582       -23.13372         6.92212
     2020.09856         3.32444         6.86528
     2020.10130        -6.71940         6.87585
     2020.10403       -19.25425         6.86792
     2020.10677       -22.48009         6.89040
     2020.10951        -2.66393         6.85734
     2020.11225         4.85422         6.89701
     2020.11498         1.59538         6.84545
     2020.11772        -6.72046         7.06226
     2020.12046       -10.59731         7.07812
     2020.12320        -4.63415         6.88246
     2020.12594        -4.36599         6.81372
     2020.12867       -18.07684         6.78860
     2020.13141        -9.72768         6.80711
     2020.13415        -4.81153         6.84280
     2020.13689        -6.00237         6.94195
     2020.13963        -0.21421         6.94195
     2020.14236       -13.89706         6.82694
     2020.14510         2.18810         6.82429
     2020.14784        -3.21774         6.85999
     2020.15058        -3.29959         6.93402
     2020.15331        -8.33343         6.91287
     2020.15605       -10.96427         6.84148
     2020.15879       -19.10812         6.89436
     2020.16153       -30.94296         6.83751
     2020.16427       -29.92080         6.86395
     2020.16700       -23.25365         6.87982
     2020.16974         2.24951         6.86131
     2020.17248        -9.59133         6.85073
     2020.17522       -14.59718         6.87850
     2020.17796       -36.20402         6.89701
     2020.18343        -2.08871         6.80843
     2020.18617        -7.76555         6.89172
     2020.18891        -8.44739         6.87850
     2020.19164        -5.87224         6.90494
     2020.19438        -5.78708         6.89304
     2020.19712        -5.84892         6.90494
     2020.19986        -8.64977         6.92741
     2020.20260        -7.17361         6.87453
     2020.20533        -6.62945         6.85206
     2020.20807        -6.15530         6.85867
     2020.21355        -5.92698         7.54083
     2020.21629        -2.40583         7.20107
     2020.21902        -6.87267         6.97500
     2020.22176        -4.07151         6.90229
     2020.22450       -10.17536         6.84941
     2020.22724        -0.18920         6.86395
     2020.22997         0.21896         6.89965
     2020.23271        -1.41989         6.85867
     2020.23545        -1.08973         7.01599
     2020.23819         1.96243         6.85206
     2020.24093       -10.63842         6.89172
     2020.24366        -9.29026         6.94328
     2020.24640       -20.68910         6.89304
     2020.24914       -27.83795         6.87717
     2020.25188        -7.53079         7.00541
     2020.25462        -1.56563         7.01467
     2020.25735        -1.73048         6.88775
     2020.26009         4.38868         6.88907
     2020.26283        -0.66616         6.84412
     2020.26557        -4.97201         6.89172
     2020.26830        -5.97685         6.88378
     2020.27104        -5.19769         6.92477
     2020.27378        -1.62554         6.92080
     2020.27652        -4.23838         6.89172
     2020.27926        -1.10922         7.00673
     2020.28199        -2.87007         7.01731
     2020.28473        -5.08191         6.98294
     2020.28747        -5.79975         6.99087
     2020.29021        -2.70160         6.97368
     2020.29295        -5.13444         6.91551
     2020.29568         1.87972         6.87321
     2020.29842         2.69487         6.87453
     2020.30116         0.90703         6.89304
     2020.30390         3.70118         6.93138
     2020.30663         3.46834         6.89965
     2020.30937         0.54950         7.13497
     2020.31211        -0.10635         7.05433
     2020.31485         1.78381         7.00938
     2020.31759         2.66297         6.86395
     2020.32032       -11.29088         6.87453
     2020.32306        -1.25972         6.87982
     2020.32580         1.76444         6.93402
     2020.32854         5.10459         6.82033
     2020.33128        -0.21525         6.80711
     2020.33401         1.60291         6.86660
     2020.33607         3.91453         9.45380
     2020.33949         1.65822         6.85338
     2020.34223        -2.99262         7.00938
     2020.34496        -5.76547         6.92212
     2020.34770        -3.41731         6.79918
     2020.35044        -2.64115         6.90494
     2020.35318        -4.40800         6.98558
     2020.35592        -1.40984         6.94195
     2020.35865         1.49332         6.84280
     2020.36139         2.96247         6.82694
     2020.36413         6.72363         6.89965
     2020.36687        -0.80421         6.93799
     2020.36961         7.00694         6.96972
     2020.37234         4.32710         6.86528
     2020.37508         3.57026         6.91684
     2020.37782         2.66541         6.87717
     2020.38056        -3.21843         6.87850
     2020.38329         1.19373         6.92873
     2020.38603        -0.42412         6.87056
     2020.38877        -0.39896         6.98426
     2020.39151         1.55320         6.85734
     2020.39425        -2.87865         6.88907
     2020.39698         1.28951         6.83355
     2020.39972        -3.32133         6.83355
     2020.40246        -0.33118         6.80050
     2020.40520        -1.79902         7.01863
     2020.40794         2.94514         6.92609
     2020.41067        -1.16571         6.86131
     2020.41341         0.12345         6.81504
     2020.41615         0.54561         6.86792
     2020.41889        -1.38724         6.88775
     2020.42162         1.61492         6.86131
     2020.42436         5.20908         7.10060
     2020.42710         5.68123         7.15744
     2020.42984         2.96039         6.86263
     2020.43258         3.27355         6.84677
     2020.43531        -3.92930         6.87982
     2020.43805         5.60686         6.89172
     2020.44079         3.21902         6.98294
     2020.44353         6.98817         7.02789
     2020.44626         0.91433         7.03053
     2020.44900         1.52149         6.92741
     2020.45174         5.09564         6.96972
     2020.45448         4.07580         6.98029
     2020.45722         2.67696         6.94856
     2020.45995         0.46611         6.96972
     2020.46269        -6.00073         6.91287
     2020.46543        -0.68457         6.92741
     2020.46817         4.12558         6.98029
     2020.47091         5.57874         6.97236
     2020.47364         5.68789         6.98955
     2020.47638         9.53505         6.99087
     2020.50102         3.37646         6.96046
     2020.50376        -3.74838         6.93402
     2020.50650        -1.78823         6.90097
     2020.50924        -0.67907         6.92080
     2020.51197        -1.33391         6.97500
     2020.51471         2.04024         6.91419
     2020.51745        -2.38260         6.97368
     2020.52019         5.29556         7.16009
     2020.52292         1.84871         6.90626
     2020.52566         5.05087         7.01070
     2020.52840        13.26703         6.96707
     2020.53114         2.14218         6.90758
     2020.53388         5.98034         6.94460
     2020.53661         2.69350         7.13100
     2020.53935         6.52565         7.15083
     2020.54209         0.66281         6.94592
     2020.54483        -0.54303         6.93931
     2020.54757         6.12412         6.94460
     2020.55030         4.25928         6.93006
     2020.55304         8.12844         7.03053
     2020.55578         6.41359         6.97500
     2020.55852         7.60275         6.97765
     2020.56125         0.92891         6.92212
     2020.56399         4.17106         6.91684
     2020.56673         3.55122         6.86792
     2020.56947         6.10038         7.08209
     2020.57221         6.08853         7.47076
     2020.57494         3.20369         7.15480
     2020.57768         3.90685         7.16273
     2020.58042         5.14600         7.16273
     2020.58316         5.50316         7.08738
     2020.58590         1.85032         7.12175
     2020.58863         0.16447         7.26982
     2020.59137         7.49963         7.07812
     2020.59411         8.55279         7.12704
     2020.59685         9.19194         7.33063
     2020.59958         2.47210         7.32666
     2020.60232         6.67826         7.07812
     2020.60506         4.25641         7.15216
     2020.60780        14.12157         7.30948
     2020.61054         5.45973         7.05300
     2020.61327         8.41688         7.05036
     2020.61601         6.95104         7.03978
     2020.61875         1.59720         7.10324
     2020.62149         1.52735         7.11514
     2020.62423         3.21651         7.17066
     2020.62696         2.43167         7.26321
     2020.62970        11.46182         7.24205
     2020.63244         5.14098         7.20636
     2020.63518        12.08414         7.20768
     2020.63791         5.79429         7.42449
     2020.64065         4.91745         7.14555
     2020.64339         4.04360         7.05036
     2020.64613         6.21676         7.07019
     2020.64887         3.61192         7.02921
     2020.65160         9.04907         7.03450
     2020.65434         0.98423         7.05433
     2020.65708         4.14339         7.17066
     2020.65982        11.00954         7.15216
     2020.66256         8.55470         7.06755
     2020.66529         5.90586         7.11646
     2020.66803         7.82101         7.03714
     2020.67077        11.02817         7.28171
     2020.67351         8.46533         7.11514
     2020.67624         4.86048         7.11250
     2020.67898         2.23964         7.05036
     2020.68172         1.08680         7.29229
     2020.68446         2.27495         7.06755
     2020.68720         2.50711         7.11250
     2020.68993         4.23927         7.06622
     2020.69267         6.73942         7.18388
     2020.69541         5.72258         7.32270
     2020.69815         5.28374         7.10721
     2020.70089         9.73889         7.02656
     2020.70362         1.76705         7.08870
     2020.70636         2.59721         7.46019
     2020.70910         4.30036         7.33856
     2020.71184        13.08652         7.40731
     2020.71457         5.29968         7.21429
     2020.71731         4.78983         7.24205
     2020.72005         4.69199         7.34649
     2020.72279         9.70015         7.11514
     2020.72553        10.03730         7.21297
     2020.72826        16.05446         7.43904
     2020.73100        15.23462         7.26453
     2020.73374        10.07177         7.30287
     2020.73648        10.61793         7.20636
     2020.73921        10.01309         7.07416
     2020.74195         7.39024         7.05961
     2020.74469         5.88840         7.07151
     2020.74743         5.53956         7.10192
     2020.75017         4.35671         7.08738
     2020.75290         3.72687         6.96972
     2020.75564         1.36703         6.96178
     2020.75838         7.25618         7.11646
     2020.76112         3.93034         7.21958
     2020.76386         4.27750         6.99219
     2020.76659         6.09265         7.02128
     2020.76933        12.76581         7.13365
     2020.77207         8.84797         7.07151
     2020.77481         9.68512         7.05961
     2020.77754        12.67928         7.02524
     2020.78028        15.32544         7.02921
     2020.78302        -2.15541         7.20768
     2020.78576         4.37675         7.04639
     2020.78850         2.17791         7.02789
     2020.79123         5.88706         7.53819
     2020.79397         6.66522         7.02392
     2020.79671         6.51838         7.13497
     2020.79945        -0.55247         7.07548
     2020.80219         4.54769         7.21826
     2020.80492        -0.47916         7.01202
     2020.80766         7.68300         7.06755
     2020.81040         7.70416         7.07151
     2020.81314         3.53931         7.04904
     2020.81587         1.28247         7.03714
     2020.81861        10.47663         6.99880
     2020.82135         3.61878         7.02260
     2020.82409        13.31694         7.07812
     2020.82683        10.65510         7.16670
     2020.82956         5.87525         7.31477
     2020.83230         5.71641         7.19578
     2020.83504         3.04057         7.24073
     2020.83778         8.52372         7.20900
     2020.84052        15.26388         7.06887
     2020.84325         9.85904         7.38880
     2020.84599         4.95619         7.48927
     2020.84873         7.87035         7.05433
     2020.85147         3.70651         7.03185
     2020.85420        10.97266         7.01334
     2020.85694        14.27182         7.10589
     2020.85968         2.58698         7.00277
     2020.86242        13.47013         6.99219
     2020.86516        12.64029         7.30419
     2020.86789         1.84545         7.17992
     2020.87063        -5.02040         6.95385
     2020.87611       -16.58908         7.18388
     2020.87885        -2.62293         7.23148
     2020.88158         7.41523         7.09663
     2020.88432        -3.05061         6.99219
     2020.89527         6.38401         7.26453
     2020.89801         7.48217         7.20900
     2020.90075         2.47933         6.97633
     2020.90349        18.59648         7.04375
     2020.90622         6.59264         7.15612
     2020.90896         6.45280         7.19314
     2020.91170         9.66695         7.31609
     2020.91444         5.49711         7.19843
     2020.91718        -6.88273         7.00012
     2020.91991        -1.67558         6.99484
     2020.92265        -0.85942         7.17199
     2020.92539         4.20374         7.07416
     2020.92813         5.88089         7.02260
     2020.93086         7.65405         7.19314
     2020.93360         8.64221         7.12307
     2020.93634         4.15536         7.08209
     2020.93908         1.46452         6.99087
     2020.94455         0.91183         6.93138
     2020.94729        -3.86101         6.91023
     2020.95003         0.08315         7.02524
     2020.95277        -9.02670         6.98426
     2020.95551       -17.02754         7.04507
     2020.95824       -15.31638         7.01070
     2020.96098       -10.21123         6.93270
     2020.96372        -8.22707         7.01599
     2020.96646         2.08709         7.11250
     2020.96919         7.55224         7.10589
     2020.97193        -1.98660         6.90758
     2020.97467        -5.08945         7.05565
     2020.97741        -6.67429         7.04639
     2020.98015        -1.68013         7.24073
     2020.98288        -2.09498         7.22751
     2020.98562         4.79118         6.89436
     2020.98836         7.30334         6.88775
     2020.99110         4.32549         6.86924
     2020.99384         4.86065         6.89304
     2020.99657        -0.86819         6.97104
     2020.99931       -12.55404         6.90758
     2021.00205        -5.34688         6.92609
     2021.00479        -0.23972         6.92609
     2021.00752        -5.52257         6.93534
     2021.01026         7.71259         7.02656
     2021.01300         6.42675         6.92609
     2021.01574        -9.56810         6.97104
     2021.01848        -7.50094         6.91287
     2021.02121        -8.14278         6.94989
     2021.02395        -6.87163         6.93006
     2021.02669         1.68853         6.93534
     2021.02943        -1.96331         7.03714
     2021.03216         7.61584         6.97633
     2021.03490       -12.25200         6.95517
     2021.03764         3.75016         6.98690
     2021.04038         4.52331         7.00012
     2021.04312        -2.53953         6.91155
     2021.04585         2.21363         6.92477
     2021.04859        -0.78822         6.88775
     2021.05133        -0.56606         6.98955
     2021.05407         1.42710         7.25263
     2021.05681         4.96125         7.14687
     2021.05954        -5.10259         6.91948
     2021.06228        -4.76843         6.94195
     2021.06502        -4.41428         6.91551
     2021.06776       -11.38912         6.92345
     2021.07049       -13.75496         6.96311
     2021.07323       -13.35381         6.87321
     2021.07597       -19.61165         7.00277
     2021.07871        -6.06249         7.04904
     2021.08145       -21.98934         6.90626
     2021.08692        -6.11402         6.89568
     2021.08966       -20.63587         6.89833
     2021.09240       -27.64171         6.85999
     2021.09514       -24.57255         7.17463
     2021.09787        -3.74340         7.08605
     2021.10061        -3.42324         6.96311
     2021.10335        -4.39308         6.89568
     2021.10609        -7.40993         6.90890
     2021.10882        -2.02277         6.87321
     2021.11156        -6.89761         6.86395
     2021.11430        -8.68346         6.87717
     2021.11704        -4.25730         6.89040
     2021.11978        -5.27014         6.90626
     2021.12251       -12.33199         6.87717
     2021.12525       -16.27983         6.95385
     2021.12799        -4.47867         6.91551
     2021.13073        -6.57552         6.89172
     2021.13347        -6.22736         7.04507
     2021.13620       -11.79620         7.06887
     2021.13894        -8.67005         6.85338
     2021.14168        -8.84889         6.89568
     2021.14442         0.16026         6.89040
     2021.14715       -23.37058         6.81107
     2021.14989       -30.57142         6.88775
     2021.15263       -25.73327         7.05829
     2021.15537       -21.15411         7.01863
     2021.15811       -18.41895         7.16273
     2021.16084       -10.52880         7.02921
     2021.16358        -4.01764         7.03978
     2021.16632        -3.59848         7.06755
     2021.16906         1.07067         6.90626
     2021.17180        -3.00817         6.89965
     2021.17453        -7.98901         7.08738
     2021.17727        -3.60786         7.05961
     2021.18001        -4.36870         6.97104
     2021.18275        -1.50054         7.20900
     2021.18548        -7.42639         6.92477
     2021.18822        -9.34223         6.86924
     2021.19096        -4.83707         6.84809
     2021.19370        -6.19392         6.89833
     2021.19644        -1.19076         6.85073
     2021.19917       -13.51260         6.87189
     2021.20191       -14.62145         6.90494
     2021.20465        -0.19129         6.89833
     2021.20739         0.12587         6.85338
     2021.21013        -0.58398         6.98294
     2021.21286       -17.35882         6.99219
     2021.21560        -5.19166         6.87850
     2021.21834        -5.78951         6.85734
     2021.22108        -4.70335         6.84016
     2021.22381       -11.12819         6.79918
     2021.22655        -6.73504         6.83487
     2021.22929         2.16112         6.85073
     2021.23203        -1.20072         6.85338
     2021.23477        -4.19757         6.87321
     2021.23750        -9.44841         6.93006
     2021.24024        -7.33225         6.82297
     2021.24298        -5.75910         6.82297
     2021.24572        -9.40094         6.88775
     2021.25119        -4.51463         6.81372
     2021.25393       -11.03747         6.83884
     2021.25667        -6.03931         6.83884
     2021.25941        -5.88816         6.85867
     2021.26214        -4.85800         6.85999
     2021.26488        -7.57884         6.82297
     2021.26762        -6.42669         6.93402
     2021.27036        -1.19953         7.14158
     2021.27310        -7.39037         6.99484
     2021.27583        -8.95522         6.98955
     2021.27857        -7.27706         7.08605
     2021.28131        -8.66990         7.00012
     2021.28405        -5.90775         6.99087
     2021.28679        -5.91959         7.00012
     2021.28952        -4.40343         6.96707
     2021.29226        -4.21428         7.00938
     2021.29500        -0.75412         7.00541
     2021.29774        -4.30896         7.17595
     2021.30047        -2.94481         6.94856
     2021.30321         1.61835         6.98426
     2021.30595        -1.29649         7.31080
     2021.30869         4.97666         7.29626
     2021.31143         4.16082         7.00806
     2021.31416         9.22197         6.96972
     2021.31690         1.26513         6.95253
     2021.31964         0.12929         7.16802
     2021.32238        -0.86256         7.22090
     2021.32512        -6.08940         7.11117
     2021.32785         0.81076         7.04639
     2021.33059         0.16091         7.00145
     2021.33333         0.63907         6.95253
     2021.33607        -0.62877         7.04243
     2021.33880        -0.51162         7.06094
     2021.34154        -5.67646         7.10853
     2021.34428        -4.74330         7.26056
     2021.34702       -11.20115         6.99351
     2021.34976        -1.94099         6.98161
     2021.35249        -3.23483         7.00145
     2021.35523        -3.76968         7.04111
     2021.35797        -5.25952         7.04639
     2021.36071        -2.44336         6.97897
     2021.36344        -6.26221         6.92873
     2021.36618        -8.18605         6.97765
     2021.36892        -6.02289         7.02128
     2021.37166        -3.27374         6.99880
     2021.37440        -0.01658         7.05961
     2021.37713        -1.60042         7.01995
     2021.37987        -3.54527         7.16670
     2021.38261        -3.78111         7.36765
     2021.38535        -9.52295         7.27510
     2021.38809        -7.53480         7.10060
     2021.39082        -0.41164         7.02392
     2021.39356         0.92952         7.02656
     2021.39630         2.01167         6.92873
     2021.39904         2.05583         6.96972
     2021.40177         5.24699         7.00145
     2021.40451         2.77414         7.13365
     2021.40725        -3.79170         6.99748
     2021.40999        -0.04454         6.99880
     2021.41273        -0.34239         7.01334
     2021.41546         3.11177         6.99616
     2021.41820        -0.24807         7.05829
     2021.42094         2.63008         7.01599
     2021.42368         7.09924         7.14158
     2021.42642         3.25440         6.98822
     2021.42915         4.29055         6.97897
     2021.43189         5.52271         6.95914
     2021.43463         6.35287         7.00145
     2021.43737         1.22302         7.04507
     2021.44010        -1.78682         7.16273
     2021.45106         2.57181         7.19049
     2021.45379         5.56796         7.17463
     2021.45653         0.10212         7.15877
     2021.45927        -0.49472         7.06887
     2021.46201        -0.57257         6.96707
     2021.46475         0.79459         7.02656
     2021.46748         1.60075         7.03846
     2021.47022         1.43690         7.25924
     2021.47296         1.73706         7.05036
     2021.48117        -0.10547         6.99351
     2021.48391        -4.32232         6.98426
     2021.48665        -8.90316         7.01731
     2021.49486         1.43631         7.10456
     2021.49760         5.00847         7.23809
     2021.50034        -1.50438         7.10985
     2021.50308         0.07578         6.98690
     2021.50581       -14.21606         6.94592
     2021.50855        -1.84191         6.97897
     2021.51129         8.78825         7.01334
     2021.51403         2.42041         6.98161
     2021.51676         5.88356         6.95121
     2021.51950         4.32472         7.19049
     2021.52224         1.37988         7.01731
     2021.52498         4.00903         6.94195
     2021.52772         4.12419         6.92080
     2021.53045         3.38135         7.02392
     2021.53319         7.23450         7.07416
     2021.53593        -1.82134         7.08341
     2021.53867         5.52182         7.34253
     2021.54141         8.53897         7.09399
     2021.54414        -0.29487         7.08341
     2021.54688        -1.22271         7.03053
     2021.54962        -0.61556         7.03582
     2021.55236         1.58160         6.98955
     2021.55509         7.83676         7.09134
     2021.55783        -0.00509         7.19578
     2021.56057         4.19307         7.06887
     2021.56331         7.90823         7.09928
     2021.56605         0.74438         7.04507
     2021.56878         2.60554         6.98426
     2021.57152         0.08270         6.94063
     2021.57426         0.07985         7.01070
     2021.57700         2.12301         7.18256
     2021.57974         5.13217         7.13233
     2021.58247        -3.75268         7.03714
     2021.58521         2.14248         7.06887
     2021.58795         3.98164         7.16141
     2021.59069         3.83879         7.09134
     2021.59342        -4.20005         7.41259
     2021.61807         4.95436         6.99484
     2021.62080         7.91252         7.17595
     2021.62354         8.56067         7.06622
     2021.62628        -2.28617         6.99880
     2021.62902         5.39499         7.07283
     2021.63175         5.00514         7.17331
     2021.63449         6.41930         7.00673
     2021.63723        13.82346         7.27246
     2021.63997         7.03361         7.13629
     2021.64271         3.49777         7.07944
     2021.64544         0.56192         6.93667
     2021.64818         9.17208         6.95121
     2021.65092         9.43224         7.03450
     2021.65366         3.28639         6.94592
     2021.65639         4.17255         7.09134
     2021.65913         6.98971         6.92477
     2021.66187         4.39286         6.93534
     2021.66461         7.50402         6.96707
     2021.66735        11.93318         6.92609
     2021.67008         5.16533         7.07680
     2021.67282         5.08649         7.33592
     2021.67556        15.88465         7.53687
     2021.67830        13.18780         7.10324
     2021.68104         8.13296         7.00012
     2021.68377        14.46012         7.04507
     2021.68651        11.49127         7.04904
     2021.68925        15.05543         7.27643
     2021.69199         7.70559         6.99484
     2021.69472         8.19074         7.13894
     2021.69746         7.78090         6.96972
     2021.70020         7.59506         6.98558
     2021.70294         7.35821         6.98822
     2021.70568        10.91537         6.94856
     2021.70841        12.17553         6.98822
     2021.71115        14.00868         7.00145
     2021.71389        13.83784         7.12968
     2021.71663        10.41100         6.98161
     2021.71937         7.59015         6.95253
     2021.72210         4.52331         7.01202
     2021.72484         4.47947         7.04375
     2021.72758         4.89562         7.05697
     2021.73032        -4.91322         7.37161
     2021.73305         8.97194         7.12968
     2021.73579        13.42909         7.16009
     2021.73853        17.32925         7.37161
     2021.74127        14.48741         7.01599
     2021.74401        12.55456         7.13233
     2021.74674         8.36372         7.34649
     2021.74948         5.75188         6.94989
     2021.75222        11.41303         7.03978
     2021.75496         6.21919         6.98955
     2021.75770         5.42235         6.95253
     2021.76043        10.73450         6.98690
     2021.76317         5.44966         6.96046
     2021.76591         4.87182         6.96575
     2021.76865         6.01797         6.95782
     2021.77138         8.24113         7.12439
     2021.77412        11.17829         7.23016
     2021.77686         9.19044         7.10456
     2021.77960        -0.95240         7.17066
     2021.78234         6.85576         6.95385
     2021.78507        16.15191         7.00012
     2021.78781        16.32707         6.97765
     2021.79055        19.69623         7.26321
     2021.79329         0.23438         6.95517
     2021.79603         5.28654         6.95253
     2021.79876        11.62970         6.98690
     2021.80150        10.91185         7.13365
     2021.80424         8.75001         7.11778
     2021.80698        17.89617         7.07812
     2021.80971         8.94932         6.98690
     2021.81245        11.21648         7.19710
     2021.81519        14.80663         7.00673
     2021.81793        15.60079         7.03450
     2021.82067         9.96595         7.02128
     2021.82340        12.07110         6.96443
     2021.82614         9.20126         6.93402
     2021.82888         9.60642         6.98029
     2021.83162        12.31057         6.93667
     2021.83436        10.24573         7.10456
     2021.83709        15.78089         6.96178
     2021.83983         6.47204         7.05961
     2021.84257         9.08820         7.12836
     2021.84531        -3.10264         7.02260
     2021.84804        -5.85349         6.91948
     2021.85078         2.77867         6.96707
     2021.85352       -28.36617         6.95914
     2021.86173       -26.69970         7.08077
     2021.86447         5.25245         7.23412
     2021.86721         6.89661         7.24205
     2021.86995        11.28177         7.33856
     2021.87269         7.33992         7.15612
     2021.87542         7.94708         7.09531
     2021.87816         0.37824         6.93270
     2021.88090        -2.81661         6.97765
     2021.88364        -0.31945         6.97765
     2021.88637         0.09971         6.96443
     2021.88911        -4.66414         7.01334
     2021.89185        -0.40898         7.16141
     2021.89459        -8.56782         6.98955
     2021.89733         5.73033         7.01863
     2021.90006         0.88249         7.09928
     2021.90280         2.30565         6.97897
     2021.90554         0.86080         6.92080
     2021.90828         9.38896         6.98426
     2021.91102         6.92912         6.95782
     2021.91375       -11.31373         7.00145
     2021.91649         4.31543         7.03450
     2021.91923         5.46659         6.97104
     2021.92197        -5.67226         7.17199
     2021.92470        -6.49910         6.94195
     2021.92744        -2.43394         7.10456
     2021.93018        -1.25279         7.02921
     2021.93292        10.39737         7.12968
     2021.93566        10.72453         7.12704
     2021.93839         0.05668         7.04375
     2021.94113         0.82584         7.19710
     2021.94387         1.84900         6.99484
     2021.97399         5.06472         6.89304
     2021.97672       -16.70112         6.89833
     2021.97946       -18.41197         6.84941
     2021.98220       -22.54681         6.87056
     2021.98494       -18.53766         6.88114
     2021.98767       -20.57250         6.88511
     2021.99041       -23.58034         6.92345
     2021.99315       -27.45919         6.85602
     2021.99589       -27.49303         6.85470
     2022.00136       -32.84872         6.91684
     2022.02600        -5.49331         7.00012
     2022.02874         0.67985         7.08605
     2022.03148        -8.12699         6.98294
     2022.03422        -4.19784         7.00277
     2022.03696        -5.37468         7.06094
     2022.03969        -9.84152         7.04507
     2022.04243        -0.30237         7.24734
     2022.04517         3.64579         7.10456
     2022.05612        -9.01458         7.15216
     2022.05886       -11.59143         7.04243
     2022.06160        -6.74927         7.09002
     2022.06433        -5.47511         7.05433
     2022.06707        -6.36196         7.12175
     2022.06981        -0.56580         7.05036
     2022.07255        -9.03364         6.94195
     2022.07529        -3.55149         6.92873
     2022.07802         0.65267         6.98294
     2022.08076        -1.98717         6.99484
     2022.08350       -14.10802         7.00938
     2022.08624       -16.61686         7.05300
     2022.08898       -15.91770         7.02921
     2022.09171        -8.83255         7.00938
     2022.09445        -9.37739         6.98294
     2022.09719        -6.84323         6.98029
     2022.09993         3.23792         7.29493
     2022.10266        -1.07192         7.19182
     2022.10540        -1.65376         7.10721
     2022.10814        11.66639         7.17595
     2022.11088         3.02955         6.94328
     2022.11362        -0.89429         6.95914
     2022.11635         0.80786         6.96311
     2022.12183         5.69818         6.98822
     2022.12457        -3.47067         7.10456
     2022.12731        -1.46351         6.97500
     2022.13004        -5.72735         6.98558
     2022.13278        -5.41620         6.92741
     2022.13552         3.44596         6.92873
     2022.13826        -9.03288         6.91551
     2022.14099       -18.43673         6.91816
     2022.14373       -23.55457         6.98294
     2022.16016         3.85137         7.09928
     2022.16290        -4.09348         7.00806
     2022.16837         1.78384         6.92609
     2022.17111        -1.13801         7.00673
     2022.17385         2.57715         7.00541
     2022.17659         1.73131         7.01731
     2022.17932        -3.99354         6.98029
     2022.18206         0.65762         6.98161
     2022.18480        -4.42222         6.94724
     2022.18754        -0.66307         7.06755
     2022.19028       -19.98391         7.04904
     2022.19301         3.85725         6.96839
     2022.19575         6.38640         7.00541
     2022.19849        -1.33644         7.03317
     2022.20123         6.10972         7.08077
     2022.20397         5.92787         7.01467
     2022.20670         1.34503         7.16802
     2022.20944         7.44519         7.17199
     2022.21218        -6.49466         6.98426
     2022.21492        -8.09550         6.99484
     2022.21765        -2.69834         7.01731
     2022.22039         1.54481         7.02524
     2022.22313         5.53697         7.12572
     2022.22587        -8.59387         7.07019
     2022.22861         4.08128         7.09663
     2022.23134         0.06644         7.00409
     2022.23408         5.04760         7.00012
     2022.23682         2.01875         7.16405
     2022.23956        -2.13409         7.00012
     2022.24230        -3.43793         7.00145
     2022.24503        -0.17978         7.00409
     2022.24777         2.45838         7.06358
     2022.25051        -6.48946         7.01863
     2022.25325        -8.69231         6.99087
     2022.25598         4.27685         6.94195
     2022.25872        -8.76299         7.03317
     2022.30527        -2.04333         7.02128
     2022.30800        -2.56017         6.96839
     2022.31074        -7.27202         7.01070
     2022.31348        -7.65286         7.01070
     2022.31622       -10.74470         6.96046
     2022.31895       -17.43155         7.09795
     2022.32169        -7.55039         7.08209
     2022.32443        -3.76924         6.95914
     2022.32717        -7.02708         6.92477
     2022.32991        -6.35492         6.99219
     2022.33264        -6.38077         7.01863
     2022.33538        -4.57661         7.16141
     2022.33812        -3.35745         7.21958
     2022.34086       -16.03930         6.97236
     2022.34360       -15.00614         6.95650
     2022.34633        -2.95698         6.94856
     2022.34907        -2.44483         6.91419
     2022.35181        -2.12967         6.96178
     2022.35455        -3.58251         6.95517
     2022.35728        -1.89236         6.92345
     2022.36002        -4.46720         6.99880
     2022.36276        -5.03004         6.90362
     2022.36550        -5.43489         6.91684
     2022.36824         1.31927         6.99087
     2022.37097        -4.16857         6.98690
     2022.37371       -10.93042         6.91684
     2022.37645        -8.28026         6.94592
     2022.37919        -4.06010         7.11117
     2022.38193       -14.17795         7.14555
     2022.38466        -9.61979         6.93402
     2022.38740       -18.57963         6.91816
     2022.39014        -6.80548         6.96972
     2022.39288        -7.63032         7.02260
     2022.39561        -8.04816         6.94063
     2022.39835        -6.57801         7.06226
     2022.40109         0.61015         7.10060
     2022.40383        -0.61069         6.94195
     2022.40657        -0.37554         6.95253
     2022.40930        -9.00938         7.11514
     2022.41204         2.53978         7.06226
     2022.41478         1.65293         6.93534
     2022.41752         1.22909         7.07019
     2022.42026        -3.94375         7.11646
     2022.42299         0.49040         6.95782
     2022.42573        -4.61544         7.20239
     2022.42847        -1.79428         7.05168
     2022.43121         1.59987         7.20239
     2022.43394        10.03103         7.20372
     2022.43668        -4.58581         7.06755
     2022.43942        -4.77066         7.14158
     2022.44216         2.02650         7.05433
     2022.44490         9.93366         7.12704
     2022.44763         8.41081         6.89965
     2022.45037        -1.40203         6.92080
     2022.45311        -8.12187         6.96707
     2022.45585         0.63728         6.90362
     2022.45859       -12.91056         6.92609
     2022.46132        -2.02740         6.95782
     2022.46406        -3.43325         6.92080
     2022.46680        -1.36209         6.94592
     2022.46954        -1.21993         6.93402
     2022.47227       -17.55578         6.93534
     2022.47501         8.54738         6.93006
     2022.47775        -6.93946         7.12175
     2022.48049        -3.63431         6.91684
     2022.48323         5.01485         6.93931
     2022.48596        11.22600         6.90758
     2022.48870         0.52916         7.11117
     2022.49144        -2.22968         6.93534
     2022.49418         3.03147         7.13233
     2022.49692         1.78263         6.90890
     2022.49965        -6.06821         7.12043
     2022.50239       -16.05506         6.94592
     2022.50513         4.97310         7.35310
     2022.51060        -5.87859         7.10985
     2022.51334        -4.24143         6.93931
     2022.51608        -7.73727         6.90494
     2022.51882       -10.23912         6.94460
     2022.52156        -7.14196         6.98822
     2022.52429         2.35120         7.01599
     2022.52703         1.11235         7.06887
     2022.52977         5.77851         6.89965
     2022.53251        -5.83533         7.08341
     2022.53525         5.27182         7.15612
     2022.53798        -4.75202         6.98029
     2022.54072        -9.80086         6.92212
     2022.54346        -4.14471         6.98955
     2022.54620        -4.15955         6.99748
     2022.54893         3.58461         6.93931
     2022.55167        -1.81124         6.94989
     2022.55441        -4.88608         7.03317
     2022.55715         4.52508         6.95121
     2022.55989        -1.96077         6.93799
     2022.56262        -7.57761         6.85206
     2022.56536       -20.32545         6.92345
     2022.56810        -0.91130         6.90758
     2022.57084         2.71886         6.96972
     2022.57357        10.17102         7.19182
     2022.57631        -4.42983         6.94328
     2022.57905       -10.29267         6.95782
     2022.58179         8.23349         6.86792
     2022.58453         8.56664         7.21165
     2022.58726        -5.30020         7.07680
     2022.59000         1.25696         6.99484
     2022.59274        -5.78789         6.83487
     2022.59548        -2.26273         6.82297
     2022.59822        -8.76457         6.82165
     2022.60095       -11.94942         6.93270
     2022.60369        -7.65026         6.91023
     2022.60643         2.19990         7.14026
     2022.60917         2.44505         7.16009
     2022.61190         9.84921         7.00012
     2022.61464         3.81937         6.85602
     2022.61738         8.46052         6.92873
     2022.62012        -9.12632         7.03317
     2022.62286        -1.23516         6.93138
     2022.62559         3.50199         6.80975
     2022.62833         1.33015         6.80975
     2022.63107         2.99431         6.84809
     2022.63381         6.83046         6.97368
     2022.63655         8.51162         6.97633
     2022.63928         5.57078         6.91155
     2022.64202         4.93593         7.28039
     2022.64476         6.75209         7.05565
     2022.64750         6.13125         6.81768
     2022.65023         6.08340         6.98161
     2022.65297        13.25056         6.85206
     2022.65571         6.80371         6.79124
     2022.65845        15.58387         6.86528
     2022.66119         8.91603         6.85073
     2022.66392         7.35418         6.81504
     2022.66666         5.76934         6.78860
     2022.66940         9.01650         6.78463
     2022.67214        13.58765         6.99484
     2022.67488        12.65481         6.96046
     2022.67761        13.79997         6.89568
     2022.68035         6.40612         6.84412
     2022.68309         4.04528         6.82429
     2022.68583         3.82444         7.05829
     2022.68856         6.90659         6.86660
     2022.69130         6.09275         6.89701
     2022.69404         8.27391         6.99616
     2022.69678         8.65206         6.97633
     2022.69952        -0.03678         6.89965
     2022.70225         9.15538         7.03978
     2022.70499         6.02853         7.09663
     2022.70773         6.96569         6.97633
     2022.71047         6.86585         6.79389
     2022.71321        12.21300         6.78331
     2022.71594        10.79116         6.77273
     2022.71868         7.31132         6.74629
     2022.72142        11.71147         6.78331
     2022.72416         3.11563         6.93006
     2022.72689        10.80179         6.97897
     2022.72963        12.25094         6.79918
     2022.73237         9.58310         6.78331
     2022.73511         5.10826         6.79521
     2022.73785         2.23941         6.78067
     2022.74058        17.21957         7.10456
     2022.74332        15.13973         7.13365
     2022.74606        12.80788         6.87189
     2022.74880        10.46204         6.71589
